#
# Results on Tuesday April 23 2019 16:05:07 UTC.
# USER AGENT: Mozilla/5.0 (Windows NT 6.2; Win64; x64) AppleWebKit/537.36 (KHTML, like Gecko) Chrome/69.0.3497.100 Safari/537.36
# Design number was non-random = 0
#
# Columns below this comment are as follows:
# 1. Time results were received.
# 2. MD5 hash of participant's IP address.
# 3. Controller name.
# 4. Item number.
# 5. Element number.
# 6. Type.
# 7. Group.
# 8. Field name.
# 9. Field value.
1556035508,0e81e35041157044ccbc12ae7005434f,NewForm,0,0,agreement,NULL,,yes
1556035508,0e81e35041157044ccbc12ae7005434f,NewForm,0,0,agreement,NULL,_REACTION_TIME_,4661
1556035508,0e81e35041157044ccbc12ae7005434f,NewForm,1,0,instructions1,NULL,,yes
1556035508,0e81e35041157044ccbc12ae7005434f,NewForm,1,0,instructions1,NULL,_REACTION_TIME_,10178
# Columns below this comment are as follows:
# 1. Time results were received.
# 2. MD5 hash of participant's IP address.
# 3. Controller name.
# 4. Item number.
# 5. Element number.
# 6. Type.
# 7. Group.
# 8. html.
# 9. value.
1556035508,0e81e35041157044ccbc12ae7005434f,SliderQuestion1,5,0,practice-donkey-true,NULL,<center><p style=" font-size: 1.4em;font-family: Book Antiqua%2C Palatino%2C serif;">Three squares are above at least one heart.</p><p></p><center><img style="border:1px solid #08396d; border-radius: 25px; height:300px;" src="http://mdenic.psycholinguae.fr/donkeys/donkey-correlation-january/practice-truedonkey-0.jpg"></center><p></p></center>,5.00
1556035508,0e81e35041157044ccbc12ae7005434f,SliderQuestion1,6,0,practice-donkey-false,NULL,<center><p style=" font-size: 1.4em;font-family: Book Antiqua%2C Palatino%2C serif;">One triangle is connected to two stars.</p><p></p><center><img style="border:1px solid #08396d; border-radius: 25px; height:300px;" src="http://mdenic.psycholinguae.fr/donkeys/donkey-correlation-january/practice-falsedonkey-0.jpg"></center><p></p></center>,0.00
1556035508,0e81e35041157044ccbc12ae7005434f,SliderQuestion1,7,0,practice-donkey-intermediate,NULL,<center><p style=" font-size: 1.4em;font-family: Book Antiqua%2C Palatino%2C serif;">Many squares are above at least one heart.</p><p></p><center><img style="border:1px solid #08396d; border-radius: 25px; height:300px;" src="http://mdenic.psycholinguae.fr/donkeys/donkey-correlation-january/practice-truedonkey-0.jpg"></center><p></p></center>,0.52
1556035508,0e81e35041157044ccbc12ae7005434f,SliderQuestion1,20,0,FirstBlock-AllbutonetriangleheartCondition41.jpg,NULL,<center><p style=" font-size: 1.4em;font-family: Book Antiqua%2C Palatino%2C serif;">All but one of the triangles that are above a heart are connected to it.</p><p></p><center><img style="border:1px solid #08396d; border-radius: 25px; height:300px;" src="http://mdenic.psycholinguae.fr/donkeys/donkey-correlation-january/triangleheartCondition41.jpg"></center><p></p></center>,5.00
1556035508,0e81e35041157044ccbc12ae7005434f,SliderQuestion1,11,0,FirstBlock-AllbutonesquarestarCondition63.jpg,NULL,<center><p style=" font-size: 1.4em;font-family: Book Antiqua%2C Palatino%2C serif;">All but one of the squares that are above a star are connected to it.</p><p></p><center><img style="border:1px solid #08396d; border-radius: 25px; height:300px;" src="http://mdenic.psycholinguae.fr/donkeys/donkey-correlation-january/squarestarCondition63.jpg"></center><p></p></center>,0.00
1556035508,0e81e35041157044ccbc12ae7005434f,SliderQuestion1,19,0,FirstBlock-AllbutonetriangleheartCondition44.jpg,NULL,<center><p style=" font-size: 1.4em;font-family: Book Antiqua%2C Palatino%2C serif;">All but one of the triangles that are above a heart are connected to it.</p><p></p><center><img style="border:1px solid #08396d; border-radius: 25px; height:300px;" src="http://mdenic.psycholinguae.fr/donkeys/donkey-correlation-january/triangleheartCondition44.jpg"></center><p></p></center>,5.00
1556035508,0e81e35041157044ccbc12ae7005434f,SliderQuestion1,36,0,FirstBlock-AllbutonesquarestarCondition51.jpg,NULL,<center><p style=" font-size: 1.4em;font-family: Book Antiqua%2C Palatino%2C serif;">All but one of the squares that are above a star are connected to it.</p><p></p><center><img style="border:1px solid #08396d; border-radius: 25px; height:300px;" src="http://mdenic.psycholinguae.fr/donkeys/donkey-correlation-january/squarestarCondition51.jpg"></center><p></p></center>,0.00
1556035508,0e81e35041157044ccbc12ae7005434f,SliderQuestion1,22,0,FirstBlock-AllbutonetrianglestarCondition32.jpg,NULL,<center><p style=" font-size: 1.4em;font-family: Book Antiqua%2C Palatino%2C serif;">All but one of the triangles that are above a star are connected to it.</p><p></p><center><img style="border:1px solid #08396d; border-radius: 25px; height:300px;" src="http://mdenic.psycholinguae.fr/donkeys/donkey-correlation-january/trianglestarCondition32.jpg"></center><p></p></center>,5.00
1556035508,0e81e35041157044ccbc12ae7005434f,SliderQuestion1,13,0,FirstBlock-AllbutonetriangleheartCondition34.jpg,NULL,<center><p style=" font-size: 1.4em;font-family: Book Antiqua%2C Palatino%2C serif;">All but one of the triangles that are above a heart are connected to it.</p><p></p><center><img style="border:1px solid #08396d; border-radius: 25px; height:300px;" src="http://mdenic.psycholinguae.fr/donkeys/donkey-correlation-january/triangleheartCondition34.jpg"></center><p></p></center>,5.00
1556035508,0e81e35041157044ccbc12ae7005434f,SliderQuestion1,32,0,FirstBlock-AllbutonesquarestarCondition36.jpg,NULL,<center><p style=" font-size: 1.4em;font-family: Book Antiqua%2C Palatino%2C serif;">All but one of the squares that are above a star are connected to it.</p><p></p><center><img style="border:1px solid #08396d; border-radius: 25px; height:300px;" src="http://mdenic.psycholinguae.fr/donkeys/donkey-correlation-january/squarestarCondition36.jpg"></center><p></p></center>,5.00
1556035508,0e81e35041157044ccbc12ae7005434f,SliderQuestion1,15,0,FirstBlock-AllbutonesquarestarCondition61.jpg,NULL,<center><p style=" font-size: 1.4em;font-family: Book Antiqua%2C Palatino%2C serif;">All but one of the squares that are above a star are connected to it.</p><p></p><center><img style="border:1px solid #08396d; border-radius: 25px; height:300px;" src="http://mdenic.psycholinguae.fr/donkeys/donkey-correlation-january/squarestarCondition61.jpg"></center><p></p></center>,0.00
1556035508,0e81e35041157044ccbc12ae7005434f,SliderQuestion1,31,0,FirstBlock-AllbutonesquarestarCondition35.jpg,NULL,<center><p style=" font-size: 1.4em;font-family: Book Antiqua%2C Palatino%2C serif;">All but one of the squares that are above a star are connected to it.</p><p></p><center><img style="border:1px solid #08396d; border-radius: 25px; height:300px;" src="http://mdenic.psycholinguae.fr/donkeys/donkey-correlation-january/squarestarCondition35.jpg"></center><p></p></center>,5.00
1556035508,0e81e35041157044ccbc12ae7005434f,SliderQuestion1,35,0,FirstBlock-AllbutonesquareheartCondition52.jpg,NULL,<center><p style=" font-size: 1.4em;font-family: Book Antiqua%2C Palatino%2C serif;">All but one of the squares that are above a heart are connected to it.</p><p></p><center><img style="border:1px solid #08396d; border-radius: 25px; height:300px;" src="http://mdenic.psycholinguae.fr/donkeys/donkey-correlation-january/squareheartCondition52.jpg"></center><p></p></center>,0.00
1556035508,0e81e35041157044ccbc12ae7005434f,SliderQuestion1,25,0,FirstBlock-AllbutonesquarestarCondition33.jpg,NULL,<center><p style=" font-size: 1.4em;font-family: Book Antiqua%2C Palatino%2C serif;">All but one of the squares that are above a star are connected to it.</p><p></p><center><img style="border:1px solid #08396d; border-radius: 25px; height:300px;" src="http://mdenic.psycholinguae.fr/donkeys/donkey-correlation-january/squarestarCondition33.jpg"></center><p></p></center>,5.00
1556035508,0e81e35041157044ccbc12ae7005434f,SliderQuestion1,37,0,FirstBlock-AllbutonesquareheartCondition45.jpg,NULL,<center><p style=" font-size: 1.4em;font-family: Book Antiqua%2C Palatino%2C serif;">All but one of the squares that are above a heart are connected to it.</p><p></p><center><img style="border:1px solid #08396d; border-radius: 25px; height:300px;" src="http://mdenic.psycholinguae.fr/donkeys/donkey-correlation-january/squareheartCondition45.jpg"></center><p></p></center>,5.00
1556035508,0e81e35041157044ccbc12ae7005434f,SliderQuestion1,17,0,FirstBlock-AllbutonetriangleheartCondition53.jpg,NULL,<center><p style=" font-size: 1.4em;font-family: Book Antiqua%2C Palatino%2C serif;">All but one of the triangles that are above a heart are connected to it.</p><p></p><center><img style="border:1px solid #08396d; border-radius: 25px; height:300px;" src="http://mdenic.psycholinguae.fr/donkeys/donkey-correlation-january/triangleheartCondition53.jpg"></center><p></p></center>,0.00
1556035508,0e81e35041157044ccbc12ae7005434f,SliderQuestion1,40,0,FirstBlock-AllbutonesquarestarCondition42.jpg,NULL,<center><p style=" font-size: 1.4em;font-family: Book Antiqua%2C Palatino%2C serif;">All but one of the squares that are above a star are connected to it.</p><p></p><center><img style="border:1px solid #08396d; border-radius: 25px; height:300px;" src="http://mdenic.psycholinguae.fr/donkeys/donkey-correlation-january/squarestarCondition42.jpg"></center><p></p></center>,5.00
1556035508,0e81e35041157044ccbc12ae7005434f,SliderQuestion1,12,0,FirstBlock-AllbutonesquarestarCondition62.jpg,NULL,<center><p style=" font-size: 1.4em;font-family: Book Antiqua%2C Palatino%2C serif;">All but one of the squares that are above a star are connected to it.</p><p></p><center><img style="border:1px solid #08396d; border-radius: 25px; height:300px;" src="http://mdenic.psycholinguae.fr/donkeys/donkey-correlation-january/squarestarCondition62.jpg"></center><p></p></center>,0.00
1556035508,0e81e35041157044ccbc12ae7005434f,SliderQuestion1,24,0,FirstBlock-AllbutonesquareheartCondition31.jpg,NULL,<center><p style=" font-size: 1.4em;font-family: Book Antiqua%2C Palatino%2C serif;">All but one of the squares that are above a heart are connected to it.</p><p></p><center><img style="border:1px solid #08396d; border-radius: 25px; height:300px;" src="http://mdenic.psycholinguae.fr/donkeys/donkey-correlation-january/squareheartCondition31.jpg"></center><p></p></center>,5.00
1556035508,0e81e35041157044ccbc12ae7005434f,SliderQuestion1,14,0,FirstBlock-AllbutonetrianglestarCondition46.jpg,NULL,<center><p style=" font-size: 1.4em;font-family: Book Antiqua%2C Palatino%2C serif;">All but one of the triangles that are above a star are connected to it.</p><p></p><center><img style="border:1px solid #08396d; border-radius: 25px; height:300px;" src="http://mdenic.psycholinguae.fr/donkeys/donkey-correlation-january/trianglestarCondition46.jpg"></center><p></p></center>,5.00
1556035508,0e81e35041157044ccbc12ae7005434f,SliderQuestion1,42,0,FirstBlock-AllbutonesquarestarCondition43.jpg,NULL,<center><p style=" font-size: 1.4em;font-family: Book Antiqua%2C Palatino%2C serif;">All but one of the squares that are above a star are connected to it.</p><p></p><center><img style="border:1px solid #08396d; border-radius: 25px; height:300px;" src="http://mdenic.psycholinguae.fr/donkeys/donkey-correlation-january/squarestarCondition43.jpg"></center><p></p></center>,5.00
1556035508,0e81e35041157044ccbc12ae7005434f,SliderQuestion1,26,0,SecondBlock-AllbutonetrianglestarCondition15.jpg,NULL,<center><p style=" font-size: 1.4em;font-family: Book Antiqua%2C Palatino%2C serif;">All but one of the triangles that are above a star are connected to it.</p><p></p><center><img style="border:1px solid #08396d; border-radius: 25px; height:300px;" src="http://mdenic.psycholinguae.fr/donkeys/donkey-correlation-january/trianglestarCondition15.jpg"></center><p></p></center>,0.00
1556035508,0e81e35041157044ccbc12ae7005434f,SliderQuestion1,18,0,SecondBlock-AllbutonesquarestarCondition11.jpg,NULL,<center><p style=" font-size: 1.4em;font-family: Book Antiqua%2C Palatino%2C serif;">All but one of the squares that are above a star are connected to it.</p><p></p><center><img style="border:1px solid #08396d; border-radius: 25px; height:300px;" src="http://mdenic.psycholinguae.fr/donkeys/donkey-correlation-january/squarestarCondition11.jpg"></center><p></p></center>,0.00
1556035508,0e81e35041157044ccbc12ae7005434f,SliderQuestion1,27,0,SecondBlock-AllbutonesquarestarCondition26.jpg,NULL,<center><p style=" font-size: 1.4em;font-family: Book Antiqua%2C Palatino%2C serif;">All but one of the squares that are above a star are connected to it.</p><p></p><center><img style="border:1px solid #08396d; border-radius: 25px; height:300px;" src="http://mdenic.psycholinguae.fr/donkeys/donkey-correlation-january/squarestarCondition26.jpg"></center><p></p></center>,0.00
1556035508,0e81e35041157044ccbc12ae7005434f,SliderQuestion1,16,0,SecondBlock-AllbutonesquarestarCondition12.jpg,NULL,<center><p style=" font-size: 1.4em;font-family: Book Antiqua%2C Palatino%2C serif;">All but one of the squares that are above a star are connected to it.</p><p></p><center><img style="border:1px solid #08396d; border-radius: 25px; height:300px;" src="http://mdenic.psycholinguae.fr/donkeys/donkey-correlation-january/squarestarCondition12.jpg"></center><p></p></center>,0.00
1556035508,0e81e35041157044ccbc12ae7005434f,SliderQuestion1,34,0,SecondBlock-AllbutonesquarestarCondition23.jpg,NULL,<center><p style=" font-size: 1.4em;font-family: Book Antiqua%2C Palatino%2C serif;">All but one of the squares that are above a star are connected to it.</p><p></p><center><img style="border:1px solid #08396d; border-radius: 25px; height:300px;" src="http://mdenic.psycholinguae.fr/donkeys/donkey-correlation-january/squarestarCondition23.jpg"></center><p></p></center>,0.00
1556035508,0e81e35041157044ccbc12ae7005434f,SliderQuestion1,9,0,SecondBlock-AllbutonetriangleheartCondition24.jpg,NULL,<center><p style=" font-size: 1.4em;font-family: Book Antiqua%2C Palatino%2C serif;">All but one of the triangles that are above a heart are connected to it.</p><p></p><center><img style="border:1px solid #08396d; border-radius: 25px; height:300px;" src="http://mdenic.psycholinguae.fr/donkeys/donkey-correlation-january/triangleheartCondition24.jpg"></center><p></p></center>,0.00
1556035508,0e81e35041157044ccbc12ae7005434f,SliderQuestion1,10,0,SecondBlock-AllbutonesquarestarCondition66.jpg,NULL,<center><p style=" font-size: 1.4em;font-family: Book Antiqua%2C Palatino%2C serif;">All but one of the squares that are above a star are connected to it.</p><p></p><center><img style="border:1px solid #08396d; border-radius: 25px; height:300px;" src="http://mdenic.psycholinguae.fr/donkeys/donkey-correlation-january/squarestarCondition66.jpg"></center><p></p></center>,0.00
1556035508,0e81e35041157044ccbc12ae7005434f,SliderQuestion1,41,0,SecondBlock-AllbutonetrianglestarCondition64.jpg,NULL,<center><p style=" font-size: 1.4em;font-family: Book Antiqua%2C Palatino%2C serif;">All but one of the triangles that are above a star are connected to it.</p><p></p><center><img style="border:1px solid #08396d; border-radius: 25px; height:300px;" src="http://mdenic.psycholinguae.fr/donkeys/donkey-correlation-january/trianglestarCondition64.jpg"></center><p></p></center>,0.00
1556035508,0e81e35041157044ccbc12ae7005434f,SliderQuestion1,23,0,SecondBlock-AllbutonetrianglestarCondition25.jpg,NULL,<center><p style=" font-size: 1.4em;font-family: Book Antiqua%2C Palatino%2C serif;">All but one of the triangles that are above a star are connected to it.</p><p></p><center><img style="border:1px solid #08396d; border-radius: 25px; height:300px;" src="http://mdenic.psycholinguae.fr/donkeys/donkey-correlation-january/trianglestarCondition25.jpg"></center><p></p></center>,0.00
1556035508,0e81e35041157044ccbc12ae7005434f,SliderQuestion1,38,0,SecondBlock-AllbutonetriangleheartCondition13.jpg,NULL,<center><p style=" font-size: 1.4em;font-family: Book Antiqua%2C Palatino%2C serif;">All but one of the triangles that are above a heart are connected to it.</p><p></p><center><img style="border:1px solid #08396d; border-radius: 25px; height:300px;" src="http://mdenic.psycholinguae.fr/donkeys/donkey-correlation-january/triangleheartCondition13.jpg"></center><p></p></center>,0.00
1556035508,0e81e35041157044ccbc12ae7005434f,SliderQuestion1,8,0,SecondBlock-AllbutonetrianglestarCondition56.jpg,NULL,<center><p style=" font-size: 1.4em;font-family: Book Antiqua%2C Palatino%2C serif;">All but one of the triangles that are above a star are connected to it.</p><p></p><center><img style="border:1px solid #08396d; border-radius: 25px; height:300px;" src="http://mdenic.psycholinguae.fr/donkeys/donkey-correlation-january/trianglestarCondition56.jpg"></center><p></p></center>,0.00
1556035508,0e81e35041157044ccbc12ae7005434f,SliderQuestion1,30,0,SecondBlock-AllbutonesquarestarCondition21.jpg,NULL,<center><p style=" font-size: 1.4em;font-family: Book Antiqua%2C Palatino%2C serif;">All but one of the squares that are above a star are connected to it.</p><p></p><center><img style="border:1px solid #08396d; border-radius: 25px; height:300px;" src="http://mdenic.psycholinguae.fr/donkeys/donkey-correlation-january/squarestarCondition21.jpg"></center><p></p></center>,0.00
1556035508,0e81e35041157044ccbc12ae7005434f,SliderQuestion1,28,0,SecondBlock-AllbutonetriangleheartCondition65.jpg,NULL,<center><p style=" font-size: 1.4em;font-family: Book Antiqua%2C Palatino%2C serif;">All but one of the triangles that are above a heart are connected to it.</p><p></p><center><img style="border:1px solid #08396d; border-radius: 25px; height:300px;" src="http://mdenic.psycholinguae.fr/donkeys/donkey-correlation-january/triangleheartCondition65.jpg"></center><p></p></center>,0.00
1556035508,0e81e35041157044ccbc12ae7005434f,SliderQuestion1,33,0,SecondBlock-AllbutonesquarestarCondition22.jpg,NULL,<center><p style=" font-size: 1.4em;font-family: Book Antiqua%2C Palatino%2C serif;">All but one of the squares that are above a star are connected to it.</p><p></p><center><img style="border:1px solid #08396d; border-radius: 25px; height:300px;" src="http://mdenic.psycholinguae.fr/donkeys/donkey-correlation-january/squarestarCondition22.jpg"></center><p></p></center>,0.00
1556035508,0e81e35041157044ccbc12ae7005434f,SliderQuestion1,29,0,SecondBlock-AllbutonetrianglestarCondition16.jpg,NULL,<center><p style=" font-size: 1.4em;font-family: Book Antiqua%2C Palatino%2C serif;">All but one of the triangles that are above a star are connected to it.</p><p></p><center><img style="border:1px solid #08396d; border-radius: 25px; height:300px;" src="http://mdenic.psycholinguae.fr/donkeys/donkey-correlation-january/trianglestarCondition16.jpg"></center><p></p></center>,0.00
1556035508,0e81e35041157044ccbc12ae7005434f,SliderQuestion1,39,0,SecondBlock-AllbutonesquareheartCondition54.jpg,NULL,<center><p style=" font-size: 1.4em;font-family: Book Antiqua%2C Palatino%2C serif;">All but one of the squares that are above a heart are connected to it.</p><p></p><center><img style="border:1px solid #08396d; border-radius: 25px; height:300px;" src="http://mdenic.psycholinguae.fr/donkeys/donkey-correlation-january/squareheartCondition54.jpg"></center><p></p></center>,0.00
1556035508,0e81e35041157044ccbc12ae7005434f,SliderQuestion1,21,0,SecondBlock-AllbutonetriangleheartCondition55.jpg,NULL,<center><p style=" font-size: 1.4em;font-family: Book Antiqua%2C Palatino%2C serif;">All but one of the triangles that are above a heart are connected to it.</p><p></p><center><img style="border:1px solid #08396d; border-radius: 25px; height:300px;" src="http://mdenic.psycholinguae.fr/donkeys/donkey-correlation-january/triangleheartCondition55.jpg"></center><p></p></center>,0.00
1556035508,0e81e35041157044ccbc12ae7005434f,SliderQuestion1,43,0,SecondBlock-AllbutonetriangleheartCondition14.jpg,NULL,<center><p style=" font-size: 1.4em;font-family: Book Antiqua%2C Palatino%2C serif;">All but one of the triangles that are above a heart are connected to it.</p><p></p><center><img style="border:1px solid #08396d; border-radius: 25px; height:300px;" src="http://mdenic.psycholinguae.fr/donkeys/donkey-correlation-january/triangleheartCondition14.jpg"></center><p></p></center>,0.00
# Columns below this comment are as follows:
# 1. Time results were received.
# 2. MD5 hash of participant's IP address.
# 3. Controller name.
# 4. Item number.
# 5. Element number.
# 6. Type.
# 7. Group.
# 8. Field name.
# 9. Field value.
1556035508,0e81e35041157044ccbc12ae7005434f,NewForm,44,0,form,NULL,year,1988
1556035508,0e81e35041157044ccbc12ae7005434f,NewForm,44,0,form,NULL,language,English
1556035508,0e81e35041157044ccbc12ae7005434f,NewForm,44,0,form,NULL,idturk,A3C0NQ2IP5FTZQ
1556035508,0e81e35041157044ccbc12ae7005434f,NewForm,44,0,form,NULL,comment,
1556035508,0e81e35041157044ccbc12ae7005434f,NewForm,44,0,form,NULL,sex,male
1556035508,0e81e35041157044ccbc12ae7005434f,NewForm,44,0,form,NULL,_REACTION_TIME_,11009
#
# Results on Tuesday April 23 2019 16:05:37 UTC.
# USER AGENT: Mozilla/5.0 (Macintosh; Intel Mac OS X 10_14_3) AppleWebKit/537.36 (KHTML, like Gecko) Chrome/73.0.3683.103 Safari/537.36
# Design number was non-random = 0
#
# Columns below this comment are as follows:
# 1. Time results were received.
# 2. MD5 hash of participant's IP address.
# 3. Controller name.
# 4. Item number.
# 5. Element number.
# 6. Type.
# 7. Group.
# 8. Field name.
# 9. Field value.
1556035538,5a54f89deaaa7436707523f951362331,NewForm,0,0,agreement,NULL,,yes
1556035538,5a54f89deaaa7436707523f951362331,NewForm,0,0,agreement,NULL,_REACTION_TIME_,2755
1556035538,5a54f89deaaa7436707523f951362331,NewForm,1,0,instructions1,NULL,,yes
1556035538,5a54f89deaaa7436707523f951362331,NewForm,1,0,instructions1,NULL,_REACTION_TIME_,5294
# Columns below this comment are as follows:
# 1. Time results were received.
# 2. MD5 hash of participant's IP address.
# 3. Controller name.
# 4. Item number.
# 5. Element number.
# 6. Type.
# 7. Group.
# 8. html.
# 9. value.
1556035538,5a54f89deaaa7436707523f951362331,SliderQuestion1,5,0,practice-donkey-true,NULL,<center><p style=" font-size: 1.4em;font-family: Book Antiqua%2C Palatino%2C serif;">Three squares are above at least one heart.</p><p></p><center><img style="border:1px solid #08396d; border-radius: 25px; height:300px;" src="http://mdenic.psycholinguae.fr/donkeys/donkey-correlation-january/practice-truedonkey-0.jpg"></center><p></p></center>,4.88
1556035538,5a54f89deaaa7436707523f951362331,SliderQuestion1,6,0,practice-donkey-false,NULL,<center><p style=" font-size: 1.4em;font-family: Book Antiqua%2C Palatino%2C serif;">One triangle is connected to two stars.</p><p></p><center><img style="border:1px solid #08396d; border-radius: 25px; height:300px;" src="http://mdenic.psycholinguae.fr/donkeys/donkey-correlation-january/practice-falsedonkey-0.jpg"></center><p></p></center>,0.01
1556035538,5a54f89deaaa7436707523f951362331,SliderQuestion1,7,0,practice-donkey-intermediate,NULL,<center><p style=" font-size: 1.4em;font-family: Book Antiqua%2C Palatino%2C serif;">Many squares are above at least one heart.</p><p></p><center><img style="border:1px solid #08396d; border-radius: 25px; height:300px;" src="http://mdenic.psycholinguae.fr/donkeys/donkey-correlation-january/practice-truedonkey-0.jpg"></center><p></p></center>,2.50
1556035538,5a54f89deaaa7436707523f951362331,SliderQuestion1,14,0,FirstBlock-AllbutonetrianglestarCondition46.jpg,NULL,<center><p style=" font-size: 1.4em;font-family: Book Antiqua%2C Palatino%2C serif;">All but one of the triangles that are above a star are connected to it.</p><p></p><center><img style="border:1px solid #08396d; border-radius: 25px; height:300px;" src="http://mdenic.psycholinguae.fr/donkeys/donkey-correlation-january/trianglestarCondition46.jpg"></center><p></p></center>,4.87
1556035538,5a54f89deaaa7436707523f951362331,SliderQuestion1,11,0,FirstBlock-AllbutonesquarestarCondition63.jpg,NULL,<center><p style=" font-size: 1.4em;font-family: Book Antiqua%2C Palatino%2C serif;">All but one of the squares that are above a star are connected to it.</p><p></p><center><img style="border:1px solid #08396d; border-radius: 25px; height:300px;" src="http://mdenic.psycholinguae.fr/donkeys/donkey-correlation-january/squarestarCondition63.jpg"></center><p></p></center>,0.07
1556035538,5a54f89deaaa7436707523f951362331,SliderQuestion1,37,0,FirstBlock-AllbutonesquareheartCondition45.jpg,NULL,<center><p style=" font-size: 1.4em;font-family: Book Antiqua%2C Palatino%2C serif;">All but one of the squares that are above a heart are connected to it.</p><p></p><center><img style="border:1px solid #08396d; border-radius: 25px; height:300px;" src="http://mdenic.psycholinguae.fr/donkeys/donkey-correlation-january/squareheartCondition45.jpg"></center><p></p></center>,4.51
1556035538,5a54f89deaaa7436707523f951362331,SliderQuestion1,40,0,FirstBlock-AllbutonesquarestarCondition42.jpg,NULL,<center><p style=" font-size: 1.4em;font-family: Book Antiqua%2C Palatino%2C serif;">All but one of the squares that are above a star are connected to it.</p><p></p><center><img style="border:1px solid #08396d; border-radius: 25px; height:300px;" src="http://mdenic.psycholinguae.fr/donkeys/donkey-correlation-january/squarestarCondition42.jpg"></center><p></p></center>,4.12
1556035538,5a54f89deaaa7436707523f951362331,SliderQuestion1,32,0,FirstBlock-AllbutonesquarestarCondition36.jpg,NULL,<center><p style=" font-size: 1.4em;font-family: Book Antiqua%2C Palatino%2C serif;">All but one of the squares that are above a star are connected to it.</p><p></p><center><img style="border:1px solid #08396d; border-radius: 25px; height:300px;" src="http://mdenic.psycholinguae.fr/donkeys/donkey-correlation-january/squarestarCondition36.jpg"></center><p></p></center>,4.94
1556035538,5a54f89deaaa7436707523f951362331,SliderQuestion1,20,0,FirstBlock-AllbutonetriangleheartCondition41.jpg,NULL,<center><p style=" font-size: 1.4em;font-family: Book Antiqua%2C Palatino%2C serif;">All but one of the triangles that are above a heart are connected to it.</p><p></p><center><img style="border:1px solid #08396d; border-radius: 25px; height:300px;" src="http://mdenic.psycholinguae.fr/donkeys/donkey-correlation-january/triangleheartCondition41.jpg"></center><p></p></center>,4.26
1556035538,5a54f89deaaa7436707523f951362331,SliderQuestion1,22,0,FirstBlock-AllbutonetrianglestarCondition32.jpg,NULL,<center><p style=" font-size: 1.4em;font-family: Book Antiqua%2C Palatino%2C serif;">All but one of the triangles that are above a star are connected to it.</p><p></p><center><img style="border:1px solid #08396d; border-radius: 25px; height:300px;" src="http://mdenic.psycholinguae.fr/donkeys/donkey-correlation-january/trianglestarCondition32.jpg"></center><p></p></center>,4.88
1556035538,5a54f89deaaa7436707523f951362331,SliderQuestion1,31,0,FirstBlock-AllbutonesquarestarCondition35.jpg,NULL,<center><p style=" font-size: 1.4em;font-family: Book Antiqua%2C Palatino%2C serif;">All but one of the squares that are above a star are connected to it.</p><p></p><center><img style="border:1px solid #08396d; border-radius: 25px; height:300px;" src="http://mdenic.psycholinguae.fr/donkeys/donkey-correlation-january/squarestarCondition35.jpg"></center><p></p></center>,4.89
1556035538,5a54f89deaaa7436707523f951362331,SliderQuestion1,25,0,FirstBlock-AllbutonesquarestarCondition33.jpg,NULL,<center><p style=" font-size: 1.4em;font-family: Book Antiqua%2C Palatino%2C serif;">All but one of the squares that are above a star are connected to it.</p><p></p><center><img style="border:1px solid #08396d; border-radius: 25px; height:300px;" src="http://mdenic.psycholinguae.fr/donkeys/donkey-correlation-january/squarestarCondition33.jpg"></center><p></p></center>,4.92
1556035538,5a54f89deaaa7436707523f951362331,SliderQuestion1,36,0,FirstBlock-AllbutonesquarestarCondition51.jpg,NULL,<center><p style=" font-size: 1.4em;font-family: Book Antiqua%2C Palatino%2C serif;">All but one of the squares that are above a star are connected to it.</p><p></p><center><img style="border:1px solid #08396d; border-radius: 25px; height:300px;" src="http://mdenic.psycholinguae.fr/donkeys/donkey-correlation-january/squarestarCondition51.jpg"></center><p></p></center>,0.13
1556035538,5a54f89deaaa7436707523f951362331,SliderQuestion1,17,0,FirstBlock-AllbutonetriangleheartCondition53.jpg,NULL,<center><p style=" font-size: 1.4em;font-family: Book Antiqua%2C Palatino%2C serif;">All but one of the triangles that are above a heart are connected to it.</p><p></p><center><img style="border:1px solid #08396d; border-radius: 25px; height:300px;" src="http://mdenic.psycholinguae.fr/donkeys/donkey-correlation-january/triangleheartCondition53.jpg"></center><p></p></center>,0.07
1556035538,5a54f89deaaa7436707523f951362331,SliderQuestion1,42,0,FirstBlock-AllbutonesquarestarCondition43.jpg,NULL,<center><p style=" font-size: 1.4em;font-family: Book Antiqua%2C Palatino%2C serif;">All but one of the squares that are above a star are connected to it.</p><p></p><center><img style="border:1px solid #08396d; border-radius: 25px; height:300px;" src="http://mdenic.psycholinguae.fr/donkeys/donkey-correlation-january/squarestarCondition43.jpg"></center><p></p></center>,4.65
1556035538,5a54f89deaaa7436707523f951362331,SliderQuestion1,24,0,FirstBlock-AllbutonesquareheartCondition31.jpg,NULL,<center><p style=" font-size: 1.4em;font-family: Book Antiqua%2C Palatino%2C serif;">All but one of the squares that are above a heart are connected to it.</p><p></p><center><img style="border:1px solid #08396d; border-radius: 25px; height:300px;" src="http://mdenic.psycholinguae.fr/donkeys/donkey-correlation-january/squareheartCondition31.jpg"></center><p></p></center>,4.94
1556035538,5a54f89deaaa7436707523f951362331,SliderQuestion1,35,0,FirstBlock-AllbutonesquareheartCondition52.jpg,NULL,<center><p style=" font-size: 1.4em;font-family: Book Antiqua%2C Palatino%2C serif;">All but one of the squares that are above a heart are connected to it.</p><p></p><center><img style="border:1px solid #08396d; border-radius: 25px; height:300px;" src="http://mdenic.psycholinguae.fr/donkeys/donkey-correlation-january/squareheartCondition52.jpg"></center><p></p></center>,0.09
1556035538,5a54f89deaaa7436707523f951362331,SliderQuestion1,12,0,FirstBlock-AllbutonesquarestarCondition62.jpg,NULL,<center><p style=" font-size: 1.4em;font-family: Book Antiqua%2C Palatino%2C serif;">All but one of the squares that are above a star are connected to it.</p><p></p><center><img style="border:1px solid #08396d; border-radius: 25px; height:300px;" src="http://mdenic.psycholinguae.fr/donkeys/donkey-correlation-january/squarestarCondition62.jpg"></center><p></p></center>,0.05
1556035538,5a54f89deaaa7436707523f951362331,SliderQuestion1,13,0,FirstBlock-AllbutonetriangleheartCondition34.jpg,NULL,<center><p style=" font-size: 1.4em;font-family: Book Antiqua%2C Palatino%2C serif;">All but one of the triangles that are above a heart are connected to it.</p><p></p><center><img style="border:1px solid #08396d; border-radius: 25px; height:300px;" src="http://mdenic.psycholinguae.fr/donkeys/donkey-correlation-january/triangleheartCondition34.jpg"></center><p></p></center>,4.89
1556035538,5a54f89deaaa7436707523f951362331,SliderQuestion1,19,0,FirstBlock-AllbutonetriangleheartCondition44.jpg,NULL,<center><p style=" font-size: 1.4em;font-family: Book Antiqua%2C Palatino%2C serif;">All but one of the triangles that are above a heart are connected to it.</p><p></p><center><img style="border:1px solid #08396d; border-radius: 25px; height:300px;" src="http://mdenic.psycholinguae.fr/donkeys/donkey-correlation-january/triangleheartCondition44.jpg"></center><p></p></center>,4.31
1556035538,5a54f89deaaa7436707523f951362331,SliderQuestion1,15,0,FirstBlock-AllbutonesquarestarCondition61.jpg,NULL,<center><p style=" font-size: 1.4em;font-family: Book Antiqua%2C Palatino%2C serif;">All but one of the squares that are above a star are connected to it.</p><p></p><center><img style="border:1px solid #08396d; border-radius: 25px; height:300px;" src="http://mdenic.psycholinguae.fr/donkeys/donkey-correlation-january/squarestarCondition61.jpg"></center><p></p></center>,0.07
1556035538,5a54f89deaaa7436707523f951362331,SliderQuestion1,9,0,SecondBlock-AllbutonetriangleheartCondition24.jpg,NULL,<center><p style=" font-size: 1.4em;font-family: Book Antiqua%2C Palatino%2C serif;">All but one of the triangles that are above a heart are connected to it.</p><p></p><center><img style="border:1px solid #08396d; border-radius: 25px; height:300px;" src="http://mdenic.psycholinguae.fr/donkeys/donkey-correlation-january/triangleheartCondition24.jpg"></center><p></p></center>,0.09
1556035538,5a54f89deaaa7436707523f951362331,SliderQuestion1,26,0,SecondBlock-AllbutonetrianglestarCondition15.jpg,NULL,<center><p style=" font-size: 1.4em;font-family: Book Antiqua%2C Palatino%2C serif;">All but one of the triangles that are above a star are connected to it.</p><p></p><center><img style="border:1px solid #08396d; border-radius: 25px; height:300px;" src="http://mdenic.psycholinguae.fr/donkeys/donkey-correlation-january/trianglestarCondition15.jpg"></center><p></p></center>,0.63
1556035538,5a54f89deaaa7436707523f951362331,SliderQuestion1,39,0,SecondBlock-AllbutonesquareheartCondition54.jpg,NULL,<center><p style=" font-size: 1.4em;font-family: Book Antiqua%2C Palatino%2C serif;">All but one of the squares that are above a heart are connected to it.</p><p></p><center><img style="border:1px solid #08396d; border-radius: 25px; height:300px;" src="http://mdenic.psycholinguae.fr/donkeys/donkey-correlation-january/squareheartCondition54.jpg"></center><p></p></center>,0.09
1556035538,5a54f89deaaa7436707523f951362331,SliderQuestion1,8,0,SecondBlock-AllbutonetrianglestarCondition56.jpg,NULL,<center><p style=" font-size: 1.4em;font-family: Book Antiqua%2C Palatino%2C serif;">All but one of the triangles that are above a star are connected to it.</p><p></p><center><img style="border:1px solid #08396d; border-radius: 25px; height:300px;" src="http://mdenic.psycholinguae.fr/donkeys/donkey-correlation-january/trianglestarCondition56.jpg"></center><p></p></center>,0.08
1556035538,5a54f89deaaa7436707523f951362331,SliderQuestion1,38,0,SecondBlock-AllbutonetriangleheartCondition13.jpg,NULL,<center><p style=" font-size: 1.4em;font-family: Book Antiqua%2C Palatino%2C serif;">All but one of the triangles that are above a heart are connected to it.</p><p></p><center><img style="border:1px solid #08396d; border-radius: 25px; height:300px;" src="http://mdenic.psycholinguae.fr/donkeys/donkey-correlation-january/triangleheartCondition13.jpg"></center><p></p></center>,0.60
1556035538,5a54f89deaaa7436707523f951362331,SliderQuestion1,21,0,SecondBlock-AllbutonetriangleheartCondition55.jpg,NULL,<center><p style=" font-size: 1.4em;font-family: Book Antiqua%2C Palatino%2C serif;">All but one of the triangles that are above a heart are connected to it.</p><p></p><center><img style="border:1px solid #08396d; border-radius: 25px; height:300px;" src="http://mdenic.psycholinguae.fr/donkeys/donkey-correlation-january/triangleheartCondition55.jpg"></center><p></p></center>,0.16
1556035538,5a54f89deaaa7436707523f951362331,SliderQuestion1,27,0,SecondBlock-AllbutonesquarestarCondition26.jpg,NULL,<center><p style=" font-size: 1.4em;font-family: Book Antiqua%2C Palatino%2C serif;">All but one of the squares that are above a star are connected to it.</p><p></p><center><img style="border:1px solid #08396d; border-radius: 25px; height:300px;" src="http://mdenic.psycholinguae.fr/donkeys/donkey-correlation-january/squarestarCondition26.jpg"></center><p></p></center>,0.17
1556035538,5a54f89deaaa7436707523f951362331,SliderQuestion1,23,0,SecondBlock-AllbutonetrianglestarCondition25.jpg,NULL,<center><p style=" font-size: 1.4em;font-family: Book Antiqua%2C Palatino%2C serif;">All but one of the triangles that are above a star are connected to it.</p><p></p><center><img style="border:1px solid #08396d; border-radius: 25px; height:300px;" src="http://mdenic.psycholinguae.fr/donkeys/donkey-correlation-january/trianglestarCondition25.jpg"></center><p></p></center>,0.17
1556035538,5a54f89deaaa7436707523f951362331,SliderQuestion1,29,0,SecondBlock-AllbutonetrianglestarCondition16.jpg,NULL,<center><p style=" font-size: 1.4em;font-family: Book Antiqua%2C Palatino%2C serif;">All but one of the triangles that are above a star are connected to it.</p><p></p><center><img style="border:1px solid #08396d; border-radius: 25px; height:300px;" src="http://mdenic.psycholinguae.fr/donkeys/donkey-correlation-january/trianglestarCondition16.jpg"></center><p></p></center>,0.84
1556035538,5a54f89deaaa7436707523f951362331,SliderQuestion1,43,0,SecondBlock-AllbutonetriangleheartCondition14.jpg,NULL,<center><p style=" font-size: 1.4em;font-family: Book Antiqua%2C Palatino%2C serif;">All but one of the triangles that are above a heart are connected to it.</p><p></p><center><img style="border:1px solid #08396d; border-radius: 25px; height:300px;" src="http://mdenic.psycholinguae.fr/donkeys/donkey-correlation-january/triangleheartCondition14.jpg"></center><p></p></center>,0.09
1556035538,5a54f89deaaa7436707523f951362331,SliderQuestion1,30,0,SecondBlock-AllbutonesquarestarCondition21.jpg,NULL,<center><p style=" font-size: 1.4em;font-family: Book Antiqua%2C Palatino%2C serif;">All but one of the squares that are above a star are connected to it.</p><p></p><center><img style="border:1px solid #08396d; border-radius: 25px; height:300px;" src="http://mdenic.psycholinguae.fr/donkeys/donkey-correlation-january/squarestarCondition21.jpg"></center><p></p></center>,0.09
1556035538,5a54f89deaaa7436707523f951362331,SliderQuestion1,16,0,SecondBlock-AllbutonesquarestarCondition12.jpg,NULL,<center><p style=" font-size: 1.4em;font-family: Book Antiqua%2C Palatino%2C serif;">All but one of the squares that are above a star are connected to it.</p><p></p><center><img style="border:1px solid #08396d; border-radius: 25px; height:300px;" src="http://mdenic.psycholinguae.fr/donkeys/donkey-correlation-january/squarestarCondition12.jpg"></center><p></p></center>,0.55
1556035538,5a54f89deaaa7436707523f951362331,SliderQuestion1,33,0,SecondBlock-AllbutonesquarestarCondition22.jpg,NULL,<center><p style=" font-size: 1.4em;font-family: Book Antiqua%2C Palatino%2C serif;">All but one of the squares that are above a star are connected to it.</p><p></p><center><img style="border:1px solid #08396d; border-radius: 25px; height:300px;" src="http://mdenic.psycholinguae.fr/donkeys/donkey-correlation-january/squarestarCondition22.jpg"></center><p></p></center>,0.04
1556035538,5a54f89deaaa7436707523f951362331,SliderQuestion1,34,0,SecondBlock-AllbutonesquarestarCondition23.jpg,NULL,<center><p style=" font-size: 1.4em;font-family: Book Antiqua%2C Palatino%2C serif;">All but one of the squares that are above a star are connected to it.</p><p></p><center><img style="border:1px solid #08396d; border-radius: 25px; height:300px;" src="http://mdenic.psycholinguae.fr/donkeys/donkey-correlation-january/squarestarCondition23.jpg"></center><p></p></center>,0.07
1556035538,5a54f89deaaa7436707523f951362331,SliderQuestion1,28,0,SecondBlock-AllbutonetriangleheartCondition65.jpg,NULL,<center><p style=" font-size: 1.4em;font-family: Book Antiqua%2C Palatino%2C serif;">All but one of the triangles that are above a heart are connected to it.</p><p></p><center><img style="border:1px solid #08396d; border-radius: 25px; height:300px;" src="http://mdenic.psycholinguae.fr/donkeys/donkey-correlation-january/triangleheartCondition65.jpg"></center><p></p></center>,0.06
1556035538,5a54f89deaaa7436707523f951362331,SliderQuestion1,41,0,SecondBlock-AllbutonetrianglestarCondition64.jpg,NULL,<center><p style=" font-size: 1.4em;font-family: Book Antiqua%2C Palatino%2C serif;">All but one of the triangles that are above a star are connected to it.</p><p></p><center><img style="border:1px solid #08396d; border-radius: 25px; height:300px;" src="http://mdenic.psycholinguae.fr/donkeys/donkey-correlation-january/trianglestarCondition64.jpg"></center><p></p></center>,0.14
1556035538,5a54f89deaaa7436707523f951362331,SliderQuestion1,10,0,SecondBlock-AllbutonesquarestarCondition66.jpg,NULL,<center><p style=" font-size: 1.4em;font-family: Book Antiqua%2C Palatino%2C serif;">All but one of the squares that are above a star are connected to it.</p><p></p><center><img style="border:1px solid #08396d; border-radius: 25px; height:300px;" src="http://mdenic.psycholinguae.fr/donkeys/donkey-correlation-january/squarestarCondition66.jpg"></center><p></p></center>,0.11
1556035538,5a54f89deaaa7436707523f951362331,SliderQuestion1,18,0,SecondBlock-AllbutonesquarestarCondition11.jpg,NULL,<center><p style=" font-size: 1.4em;font-family: Book Antiqua%2C Palatino%2C serif;">All but one of the squares that are above a star are connected to it.</p><p></p><center><img style="border:1px solid #08396d; border-radius: 25px; height:300px;" src="http://mdenic.psycholinguae.fr/donkeys/donkey-correlation-january/squarestarCondition11.jpg"></center><p></p></center>,1.02
# Columns below this comment are as follows:
# 1. Time results were received.
# 2. MD5 hash of participant's IP address.
# 3. Controller name.
# 4. Item number.
# 5. Element number.
# 6. Type.
# 7. Group.
# 8. Field name.
# 9. Field value.
1556035538,5a54f89deaaa7436707523f951362331,NewForm,44,0,form,NULL,year,1994
1556035538,5a54f89deaaa7436707523f951362331,NewForm,44,0,form,NULL,language,English
1556035538,5a54f89deaaa7436707523f951362331,NewForm,44,0,form,NULL,idturk,A1ZB2NY0F9QNP0
1556035538,5a54f89deaaa7436707523f951362331,NewForm,44,0,form,NULL,comment,
1556035538,5a54f89deaaa7436707523f951362331,NewForm,44,0,form,NULL,sex,female
1556035538,5a54f89deaaa7436707523f951362331,NewForm,44,0,form,NULL,_REACTION_TIME_,12810
#
# Results on Tuesday April 23 2019 16:05:55 UTC.
# USER AGENT: Mozilla/5.0 (Windows NT 10.0; Win64; x64) AppleWebKit/537.36 (KHTML, like Gecko) Chrome/75.0.3768.0 Safari/537.36
# Design number was non-random = 0
#
# Columns below this comment are as follows:
# 1. Time results were received.
# 2. MD5 hash of participant's IP address.
# 3. Controller name.
# 4. Item number.
# 5. Element number.
# 6. Type.
# 7. Group.
# 8. Field name.
# 9. Field value.
1556035556,d9e61594b449c6f5207273de12b7aa61,NewForm,0,0,agreement,NULL,,yes
1556035556,d9e61594b449c6f5207273de12b7aa61,NewForm,0,0,agreement,NULL,_REACTION_TIME_,3647
1556035556,d9e61594b449c6f5207273de12b7aa61,NewForm,1,0,instructions1,NULL,,yes
1556035556,d9e61594b449c6f5207273de12b7aa61,NewForm,1,0,instructions1,NULL,_REACTION_TIME_,7394
# Columns below this comment are as follows:
# 1. Time results were received.
# 2. MD5 hash of participant's IP address.
# 3. Controller name.
# 4. Item number.
# 5. Element number.
# 6. Type.
# 7. Group.
# 8. html.
# 9. value.
1556035556,d9e61594b449c6f5207273de12b7aa61,SliderQuestion1,5,0,practice-donkey-true,NULL,<center><p style=" font-size: 1.4em;font-family: Book Antiqua%2C Palatino%2C serif;">Three squares are above at least one heart.</p><p></p><center><img style="border:1px solid #08396d; border-radius: 25px; height:300px;" src="http://mdenic.psycholinguae.fr/donkeys/donkey-correlation-january/practice-truedonkey-0.jpg"></center><p></p></center>,5.00
1556035556,d9e61594b449c6f5207273de12b7aa61,SliderQuestion1,6,0,practice-donkey-false,NULL,<center><p style=" font-size: 1.4em;font-family: Book Antiqua%2C Palatino%2C serif;">One triangle is connected to two stars.</p><p></p><center><img style="border:1px solid #08396d; border-radius: 25px; height:300px;" src="http://mdenic.psycholinguae.fr/donkeys/donkey-correlation-january/practice-falsedonkey-0.jpg"></center><p></p></center>,0.00
1556035556,d9e61594b449c6f5207273de12b7aa61,SliderQuestion1,7,0,practice-donkey-intermediate,NULL,<center><p style=" font-size: 1.4em;font-family: Book Antiqua%2C Palatino%2C serif;">Many squares are above at least one heart.</p><p></p><center><img style="border:1px solid #08396d; border-radius: 25px; height:300px;" src="http://mdenic.psycholinguae.fr/donkeys/donkey-correlation-january/practice-truedonkey-0.jpg"></center><p></p></center>,2.53
1556035556,d9e61594b449c6f5207273de12b7aa61,SliderQuestion1,37,0,FirstBlock-AllbutonesquareheartCondition45.jpg,NULL,<center><p style=" font-size: 1.4em;font-family: Book Antiqua%2C Palatino%2C serif;">All but one of the squares that are above a heart are connected to it.</p><p></p><center><img style="border:1px solid #08396d; border-radius: 25px; height:300px;" src="http://mdenic.psycholinguae.fr/donkeys/donkey-correlation-january/squareheartCondition45.jpg"></center><p></p></center>,0.00
1556035556,d9e61594b449c6f5207273de12b7aa61,SliderQuestion1,19,0,FirstBlock-AllbutonetriangleheartCondition44.jpg,NULL,<center><p style=" font-size: 1.4em;font-family: Book Antiqua%2C Palatino%2C serif;">All but one of the triangles that are above a heart are connected to it.</p><p></p><center><img style="border:1px solid #08396d; border-radius: 25px; height:300px;" src="http://mdenic.psycholinguae.fr/donkeys/donkey-correlation-january/triangleheartCondition44.jpg"></center><p></p></center>,5.00
1556035556,d9e61594b449c6f5207273de12b7aa61,SliderQuestion1,32,0,FirstBlock-AllbutonesquarestarCondition36.jpg,NULL,<center><p style=" font-size: 1.4em;font-family: Book Antiqua%2C Palatino%2C serif;">All but one of the squares that are above a star are connected to it.</p><p></p><center><img style="border:1px solid #08396d; border-radius: 25px; height:300px;" src="http://mdenic.psycholinguae.fr/donkeys/donkey-correlation-january/squarestarCondition36.jpg"></center><p></p></center>,4.79
1556035556,d9e61594b449c6f5207273de12b7aa61,SliderQuestion1,22,0,FirstBlock-AllbutonetrianglestarCondition32.jpg,NULL,<center><p style=" font-size: 1.4em;font-family: Book Antiqua%2C Palatino%2C serif;">All but one of the triangles that are above a star are connected to it.</p><p></p><center><img style="border:1px solid #08396d; border-radius: 25px; height:300px;" src="http://mdenic.psycholinguae.fr/donkeys/donkey-correlation-january/trianglestarCondition32.jpg"></center><p></p></center>,5.00
1556035556,d9e61594b449c6f5207273de12b7aa61,SliderQuestion1,31,0,FirstBlock-AllbutonesquarestarCondition35.jpg,NULL,<center><p style=" font-size: 1.4em;font-family: Book Antiqua%2C Palatino%2C serif;">All but one of the squares that are above a star are connected to it.</p><p></p><center><img style="border:1px solid #08396d; border-radius: 25px; height:300px;" src="http://mdenic.psycholinguae.fr/donkeys/donkey-correlation-january/squarestarCondition35.jpg"></center><p></p></center>,5.00
1556035556,d9e61594b449c6f5207273de12b7aa61,SliderQuestion1,13,0,FirstBlock-AllbutonetriangleheartCondition34.jpg,NULL,<center><p style=" font-size: 1.4em;font-family: Book Antiqua%2C Palatino%2C serif;">All but one of the triangles that are above a heart are connected to it.</p><p></p><center><img style="border:1px solid #08396d; border-radius: 25px; height:300px;" src="http://mdenic.psycholinguae.fr/donkeys/donkey-correlation-january/triangleheartCondition34.jpg"></center><p></p></center>,4.92
1556035556,d9e61594b449c6f5207273de12b7aa61,SliderQuestion1,35,0,FirstBlock-AllbutonesquareheartCondition52.jpg,NULL,<center><p style=" font-size: 1.4em;font-family: Book Antiqua%2C Palatino%2C serif;">All but one of the squares that are above a heart are connected to it.</p><p></p><center><img style="border:1px solid #08396d; border-radius: 25px; height:300px;" src="http://mdenic.psycholinguae.fr/donkeys/donkey-correlation-january/squareheartCondition52.jpg"></center><p></p></center>,0.00
1556035556,d9e61594b449c6f5207273de12b7aa61,SliderQuestion1,14,0,FirstBlock-AllbutonetrianglestarCondition46.jpg,NULL,<center><p style=" font-size: 1.4em;font-family: Book Antiqua%2C Palatino%2C serif;">All but one of the triangles that are above a star are connected to it.</p><p></p><center><img style="border:1px solid #08396d; border-radius: 25px; height:300px;" src="http://mdenic.psycholinguae.fr/donkeys/donkey-correlation-january/trianglestarCondition46.jpg"></center><p></p></center>,4.22
1556035556,d9e61594b449c6f5207273de12b7aa61,SliderQuestion1,40,0,FirstBlock-AllbutonesquarestarCondition42.jpg,NULL,<center><p style=" font-size: 1.4em;font-family: Book Antiqua%2C Palatino%2C serif;">All but one of the squares that are above a star are connected to it.</p><p></p><center><img style="border:1px solid #08396d; border-radius: 25px; height:300px;" src="http://mdenic.psycholinguae.fr/donkeys/donkey-correlation-january/squarestarCondition42.jpg"></center><p></p></center>,3.36
1556035556,d9e61594b449c6f5207273de12b7aa61,SliderQuestion1,42,0,FirstBlock-AllbutonesquarestarCondition43.jpg,NULL,<center><p style=" font-size: 1.4em;font-family: Book Antiqua%2C Palatino%2C serif;">All but one of the squares that are above a star are connected to it.</p><p></p><center><img style="border:1px solid #08396d; border-radius: 25px; height:300px;" src="http://mdenic.psycholinguae.fr/donkeys/donkey-correlation-january/squarestarCondition43.jpg"></center><p></p></center>,5.00
1556035556,d9e61594b449c6f5207273de12b7aa61,SliderQuestion1,11,0,FirstBlock-AllbutonesquarestarCondition63.jpg,NULL,<center><p style=" font-size: 1.4em;font-family: Book Antiqua%2C Palatino%2C serif;">All but one of the squares that are above a star are connected to it.</p><p></p><center><img style="border:1px solid #08396d; border-radius: 25px; height:300px;" src="http://mdenic.psycholinguae.fr/donkeys/donkey-correlation-january/squarestarCondition63.jpg"></center><p></p></center>,0.00
1556035556,d9e61594b449c6f5207273de12b7aa61,SliderQuestion1,25,0,FirstBlock-AllbutonesquarestarCondition33.jpg,NULL,<center><p style=" font-size: 1.4em;font-family: Book Antiqua%2C Palatino%2C serif;">All but one of the squares that are above a star are connected to it.</p><p></p><center><img style="border:1px solid #08396d; border-radius: 25px; height:300px;" src="http://mdenic.psycholinguae.fr/donkeys/donkey-correlation-january/squarestarCondition33.jpg"></center><p></p></center>,5.00
1556035556,d9e61594b449c6f5207273de12b7aa61,SliderQuestion1,20,0,FirstBlock-AllbutonetriangleheartCondition41.jpg,NULL,<center><p style=" font-size: 1.4em;font-family: Book Antiqua%2C Palatino%2C serif;">All but one of the triangles that are above a heart are connected to it.</p><p></p><center><img style="border:1px solid #08396d; border-radius: 25px; height:300px;" src="http://mdenic.psycholinguae.fr/donkeys/donkey-correlation-january/triangleheartCondition41.jpg"></center><p></p></center>,4.60
1556035556,d9e61594b449c6f5207273de12b7aa61,SliderQuestion1,36,0,FirstBlock-AllbutonesquarestarCondition51.jpg,NULL,<center><p style=" font-size: 1.4em;font-family: Book Antiqua%2C Palatino%2C serif;">All but one of the squares that are above a star are connected to it.</p><p></p><center><img style="border:1px solid #08396d; border-radius: 25px; height:300px;" src="http://mdenic.psycholinguae.fr/donkeys/donkey-correlation-january/squarestarCondition51.jpg"></center><p></p></center>,0.00
1556035556,d9e61594b449c6f5207273de12b7aa61,SliderQuestion1,15,0,FirstBlock-AllbutonesquarestarCondition61.jpg,NULL,<center><p style=" font-size: 1.4em;font-family: Book Antiqua%2C Palatino%2C serif;">All but one of the squares that are above a star are connected to it.</p><p></p><center><img style="border:1px solid #08396d; border-radius: 25px; height:300px;" src="http://mdenic.psycholinguae.fr/donkeys/donkey-correlation-january/squarestarCondition61.jpg"></center><p></p></center>,0.00
1556035556,d9e61594b449c6f5207273de12b7aa61,SliderQuestion1,24,0,FirstBlock-AllbutonesquareheartCondition31.jpg,NULL,<center><p style=" font-size: 1.4em;font-family: Book Antiqua%2C Palatino%2C serif;">All but one of the squares that are above a heart are connected to it.</p><p></p><center><img style="border:1px solid #08396d; border-radius: 25px; height:300px;" src="http://mdenic.psycholinguae.fr/donkeys/donkey-correlation-january/squareheartCondition31.jpg"></center><p></p></center>,5.00
1556035556,d9e61594b449c6f5207273de12b7aa61,SliderQuestion1,12,0,FirstBlock-AllbutonesquarestarCondition62.jpg,NULL,<center><p style=" font-size: 1.4em;font-family: Book Antiqua%2C Palatino%2C serif;">All but one of the squares that are above a star are connected to it.</p><p></p><center><img style="border:1px solid #08396d; border-radius: 25px; height:300px;" src="http://mdenic.psycholinguae.fr/donkeys/donkey-correlation-january/squarestarCondition62.jpg"></center><p></p></center>,0.00
1556035556,d9e61594b449c6f5207273de12b7aa61,SliderQuestion1,17,0,FirstBlock-AllbutonetriangleheartCondition53.jpg,NULL,<center><p style=" font-size: 1.4em;font-family: Book Antiqua%2C Palatino%2C serif;">All but one of the triangles that are above a heart are connected to it.</p><p></p><center><img style="border:1px solid #08396d; border-radius: 25px; height:300px;" src="http://mdenic.psycholinguae.fr/donkeys/donkey-correlation-january/triangleheartCondition53.jpg"></center><p></p></center>,0.00
1556035556,d9e61594b449c6f5207273de12b7aa61,SliderQuestion1,16,0,SecondBlock-AllbutonesquarestarCondition12.jpg,NULL,<center><p style=" font-size: 1.4em;font-family: Book Antiqua%2C Palatino%2C serif;">All but one of the squares that are above a star are connected to it.</p><p></p><center><img style="border:1px solid #08396d; border-radius: 25px; height:300px;" src="http://mdenic.psycholinguae.fr/donkeys/donkey-correlation-january/squarestarCondition12.jpg"></center><p></p></center>,4.26
1556035556,d9e61594b449c6f5207273de12b7aa61,SliderQuestion1,33,0,SecondBlock-AllbutonesquarestarCondition22.jpg,NULL,<center><p style=" font-size: 1.4em;font-family: Book Antiqua%2C Palatino%2C serif;">All but one of the squares that are above a star are connected to it.</p><p></p><center><img style="border:1px solid #08396d; border-radius: 25px; height:300px;" src="http://mdenic.psycholinguae.fr/donkeys/donkey-correlation-january/squarestarCondition22.jpg"></center><p></p></center>,0.00
1556035556,d9e61594b449c6f5207273de12b7aa61,SliderQuestion1,30,0,SecondBlock-AllbutonesquarestarCondition21.jpg,NULL,<center><p style=" font-size: 1.4em;font-family: Book Antiqua%2C Palatino%2C serif;">All but one of the squares that are above a star are connected to it.</p><p></p><center><img style="border:1px solid #08396d; border-radius: 25px; height:300px;" src="http://mdenic.psycholinguae.fr/donkeys/donkey-correlation-january/squarestarCondition21.jpg"></center><p></p></center>,0.00
1556035556,d9e61594b449c6f5207273de12b7aa61,SliderQuestion1,27,0,SecondBlock-AllbutonesquarestarCondition26.jpg,NULL,<center><p style=" font-size: 1.4em;font-family: Book Antiqua%2C Palatino%2C serif;">All but one of the squares that are above a star are connected to it.</p><p></p><center><img style="border:1px solid #08396d; border-radius: 25px; height:300px;" src="http://mdenic.psycholinguae.fr/donkeys/donkey-correlation-january/squarestarCondition26.jpg"></center><p></p></center>,1.07
1556035556,d9e61594b449c6f5207273de12b7aa61,SliderQuestion1,43,0,SecondBlock-AllbutonetriangleheartCondition14.jpg,NULL,<center><p style=" font-size: 1.4em;font-family: Book Antiqua%2C Palatino%2C serif;">All but one of the triangles that are above a heart are connected to it.</p><p></p><center><img style="border:1px solid #08396d; border-radius: 25px; height:300px;" src="http://mdenic.psycholinguae.fr/donkeys/donkey-correlation-january/triangleheartCondition14.jpg"></center><p></p></center>,0.00
1556035556,d9e61594b449c6f5207273de12b7aa61,SliderQuestion1,10,0,SecondBlock-AllbutonesquarestarCondition66.jpg,NULL,<center><p style=" font-size: 1.4em;font-family: Book Antiqua%2C Palatino%2C serif;">All but one of the squares that are above a star are connected to it.</p><p></p><center><img style="border:1px solid #08396d; border-radius: 25px; height:300px;" src="http://mdenic.psycholinguae.fr/donkeys/donkey-correlation-january/squarestarCondition66.jpg"></center><p></p></center>,0.00
1556035556,d9e61594b449c6f5207273de12b7aa61,SliderQuestion1,28,0,SecondBlock-AllbutonetriangleheartCondition65.jpg,NULL,<center><p style=" font-size: 1.4em;font-family: Book Antiqua%2C Palatino%2C serif;">All but one of the triangles that are above a heart are connected to it.</p><p></p><center><img style="border:1px solid #08396d; border-radius: 25px; height:300px;" src="http://mdenic.psycholinguae.fr/donkeys/donkey-correlation-january/triangleheartCondition65.jpg"></center><p></p></center>,0.00
1556035556,d9e61594b449c6f5207273de12b7aa61,SliderQuestion1,23,0,SecondBlock-AllbutonetrianglestarCondition25.jpg,NULL,<center><p style=" font-size: 1.4em;font-family: Book Antiqua%2C Palatino%2C serif;">All but one of the triangles that are above a star are connected to it.</p><p></p><center><img style="border:1px solid #08396d; border-radius: 25px; height:300px;" src="http://mdenic.psycholinguae.fr/donkeys/donkey-correlation-january/trianglestarCondition25.jpg"></center><p></p></center>,0.73
1556035556,d9e61594b449c6f5207273de12b7aa61,SliderQuestion1,38,0,SecondBlock-AllbutonetriangleheartCondition13.jpg,NULL,<center><p style=" font-size: 1.4em;font-family: Book Antiqua%2C Palatino%2C serif;">All but one of the triangles that are above a heart are connected to it.</p><p></p><center><img style="border:1px solid #08396d; border-radius: 25px; height:300px;" src="http://mdenic.psycholinguae.fr/donkeys/donkey-correlation-january/triangleheartCondition13.jpg"></center><p></p></center>,0.81
1556035556,d9e61594b449c6f5207273de12b7aa61,SliderQuestion1,21,0,SecondBlock-AllbutonetriangleheartCondition55.jpg,NULL,<center><p style=" font-size: 1.4em;font-family: Book Antiqua%2C Palatino%2C serif;">All but one of the triangles that are above a heart are connected to it.</p><p></p><center><img style="border:1px solid #08396d; border-radius: 25px; height:300px;" src="http://mdenic.psycholinguae.fr/donkeys/donkey-correlation-january/triangleheartCondition55.jpg"></center><p></p></center>,0.00
1556035556,d9e61594b449c6f5207273de12b7aa61,SliderQuestion1,41,0,SecondBlock-AllbutonetrianglestarCondition64.jpg,NULL,<center><p style=" font-size: 1.4em;font-family: Book Antiqua%2C Palatino%2C serif;">All but one of the triangles that are above a star are connected to it.</p><p></p><center><img style="border:1px solid #08396d; border-radius: 25px; height:300px;" src="http://mdenic.psycholinguae.fr/donkeys/donkey-correlation-january/trianglestarCondition64.jpg"></center><p></p></center>,0.66
1556035556,d9e61594b449c6f5207273de12b7aa61,SliderQuestion1,26,0,SecondBlock-AllbutonetrianglestarCondition15.jpg,NULL,<center><p style=" font-size: 1.4em;font-family: Book Antiqua%2C Palatino%2C serif;">All but one of the triangles that are above a star are connected to it.</p><p></p><center><img style="border:1px solid #08396d; border-radius: 25px; height:300px;" src="http://mdenic.psycholinguae.fr/donkeys/donkey-correlation-january/trianglestarCondition15.jpg"></center><p></p></center>,1.25
1556035556,d9e61594b449c6f5207273de12b7aa61,SliderQuestion1,29,0,SecondBlock-AllbutonetrianglestarCondition16.jpg,NULL,<center><p style=" font-size: 1.4em;font-family: Book Antiqua%2C Palatino%2C serif;">All but one of the triangles that are above a star are connected to it.</p><p></p><center><img style="border:1px solid #08396d; border-radius: 25px; height:300px;" src="http://mdenic.psycholinguae.fr/donkeys/donkey-correlation-january/trianglestarCondition16.jpg"></center><p></p></center>,1.04
1556035556,d9e61594b449c6f5207273de12b7aa61,SliderQuestion1,8,0,SecondBlock-AllbutonetrianglestarCondition56.jpg,NULL,<center><p style=" font-size: 1.4em;font-family: Book Antiqua%2C Palatino%2C serif;">All but one of the triangles that are above a star are connected to it.</p><p></p><center><img style="border:1px solid #08396d; border-radius: 25px; height:300px;" src="http://mdenic.psycholinguae.fr/donkeys/donkey-correlation-january/trianglestarCondition56.jpg"></center><p></p></center>,0.00
1556035556,d9e61594b449c6f5207273de12b7aa61,SliderQuestion1,39,0,SecondBlock-AllbutonesquareheartCondition54.jpg,NULL,<center><p style=" font-size: 1.4em;font-family: Book Antiqua%2C Palatino%2C serif;">All but one of the squares that are above a heart are connected to it.</p><p></p><center><img style="border:1px solid #08396d; border-radius: 25px; height:300px;" src="http://mdenic.psycholinguae.fr/donkeys/donkey-correlation-january/squareheartCondition54.jpg"></center><p></p></center>,0.00
1556035556,d9e61594b449c6f5207273de12b7aa61,SliderQuestion1,18,0,SecondBlock-AllbutonesquarestarCondition11.jpg,NULL,<center><p style=" font-size: 1.4em;font-family: Book Antiqua%2C Palatino%2C serif;">All but one of the squares that are above a star are connected to it.</p><p></p><center><img style="border:1px solid #08396d; border-radius: 25px; height:300px;" src="http://mdenic.psycholinguae.fr/donkeys/donkey-correlation-january/squarestarCondition11.jpg"></center><p></p></center>,1.06
1556035556,d9e61594b449c6f5207273de12b7aa61,SliderQuestion1,9,0,SecondBlock-AllbutonetriangleheartCondition24.jpg,NULL,<center><p style=" font-size: 1.4em;font-family: Book Antiqua%2C Palatino%2C serif;">All but one of the triangles that are above a heart are connected to it.</p><p></p><center><img style="border:1px solid #08396d; border-radius: 25px; height:300px;" src="http://mdenic.psycholinguae.fr/donkeys/donkey-correlation-january/triangleheartCondition24.jpg"></center><p></p></center>,0.00
1556035556,d9e61594b449c6f5207273de12b7aa61,SliderQuestion1,34,0,SecondBlock-AllbutonesquarestarCondition23.jpg,NULL,<center><p style=" font-size: 1.4em;font-family: Book Antiqua%2C Palatino%2C serif;">All but one of the squares that are above a star are connected to it.</p><p></p><center><img style="border:1px solid #08396d; border-radius: 25px; height:300px;" src="http://mdenic.psycholinguae.fr/donkeys/donkey-correlation-january/squarestarCondition23.jpg"></center><p></p></center>,0.00
# Columns below this comment are as follows:
# 1. Time results were received.
# 2. MD5 hash of participant's IP address.
# 3. Controller name.
# 4. Item number.
# 5. Element number.
# 6. Type.
# 7. Group.
# 8. Field name.
# 9. Field value.
1556035556,d9e61594b449c6f5207273de12b7aa61,NewForm,44,0,form,NULL,year,1991
1556035556,d9e61594b449c6f5207273de12b7aa61,NewForm,44,0,form,NULL,language,English
1556035556,d9e61594b449c6f5207273de12b7aa61,NewForm,44,0,form,NULL,idturk,A326O3VWP8TO8N
1556035556,d9e61594b449c6f5207273de12b7aa61,NewForm,44,0,form,NULL,comment,
1556035556,d9e61594b449c6f5207273de12b7aa61,NewForm,44,0,form,NULL,sex,male
1556035556,d9e61594b449c6f5207273de12b7aa61,NewForm,44,0,form,NULL,_REACTION_TIME_,11047
#
# Results on Tuesday April 23 2019 16:07:00 UTC.
# USER AGENT: Mozilla/5.0 (Windows NT 6.1; Win64; x64) AppleWebKit/537.36 (KHTML, like Gecko) Chrome/72.0.3626.121 Safari/537.36
# Design number was non-random = 0
#
# Columns below this comment are as follows:
# 1. Time results were received.
# 2. MD5 hash of participant's IP address.
# 3. Controller name.
# 4. Item number.
# 5. Element number.
# 6. Type.
# 7. Group.
# 8. Field name.
# 9. Field value.
1556035621,b2259ed8ea0208da359cbcd4947b73f3,NewForm,0,0,agreement,NULL,,yes
1556035621,b2259ed8ea0208da359cbcd4947b73f3,NewForm,0,0,agreement,NULL,_REACTION_TIME_,9782
1556035621,b2259ed8ea0208da359cbcd4947b73f3,NewForm,1,0,instructions1,NULL,,yes
1556035621,b2259ed8ea0208da359cbcd4947b73f3,NewForm,1,0,instructions1,NULL,_REACTION_TIME_,12901
# Columns below this comment are as follows:
# 1. Time results were received.
# 2. MD5 hash of participant's IP address.
# 3. Controller name.
# 4. Item number.
# 5. Element number.
# 6. Type.
# 7. Group.
# 8. html.
# 9. value.
1556035621,b2259ed8ea0208da359cbcd4947b73f3,SliderQuestion1,5,0,practice-donkey-true,NULL,<center><p style=" font-size: 1.4em;font-family: Book Antiqua%2C Palatino%2C serif;">Three squares are above at least one heart.</p><p></p><center><img style="border:1px solid #08396d; border-radius: 25px; height:300px;" src="http://mdenic.psycholinguae.fr/donkeys/donkey-correlation-january/practice-truedonkey-0.jpg"></center><p></p></center>,4.91
1556035621,b2259ed8ea0208da359cbcd4947b73f3,SliderQuestion1,6,0,practice-donkey-false,NULL,<center><p style=" font-size: 1.4em;font-family: Book Antiqua%2C Palatino%2C serif;">One triangle is connected to two stars.</p><p></p><center><img style="border:1px solid #08396d; border-radius: 25px; height:300px;" src="http://mdenic.psycholinguae.fr/donkeys/donkey-correlation-january/practice-falsedonkey-0.jpg"></center><p></p></center>,0.05
1556035621,b2259ed8ea0208da359cbcd4947b73f3,SliderQuestion1,7,0,practice-donkey-intermediate,NULL,<center><p style=" font-size: 1.4em;font-family: Book Antiqua%2C Palatino%2C serif;">Many squares are above at least one heart.</p><p></p><center><img style="border:1px solid #08396d; border-radius: 25px; height:300px;" src="http://mdenic.psycholinguae.fr/donkeys/donkey-correlation-january/practice-truedonkey-0.jpg"></center><p></p></center>,2.50
1556035621,b2259ed8ea0208da359cbcd4947b73f3,SliderQuestion1,13,0,FirstBlock-AllbutonetriangleheartCondition34.jpg,NULL,<center><p style=" font-size: 1.4em;font-family: Book Antiqua%2C Palatino%2C serif;">All but one of the triangles that are above a heart are connected to it.</p><p></p><center><img style="border:1px solid #08396d; border-radius: 25px; height:300px;" src="http://mdenic.psycholinguae.fr/donkeys/donkey-correlation-january/triangleheartCondition34.jpg"></center><p></p></center>,0.05
1556035621,b2259ed8ea0208da359cbcd4947b73f3,SliderQuestion1,22,0,FirstBlock-AllbutonetrianglestarCondition32.jpg,NULL,<center><p style=" font-size: 1.4em;font-family: Book Antiqua%2C Palatino%2C serif;">All but one of the triangles that are above a star are connected to it.</p><p></p><center><img style="border:1px solid #08396d; border-radius: 25px; height:300px;" src="http://mdenic.psycholinguae.fr/donkeys/donkey-correlation-january/trianglestarCondition32.jpg"></center><p></p></center>,0.00
1556035621,b2259ed8ea0208da359cbcd4947b73f3,SliderQuestion1,14,0,FirstBlock-AllbutonetrianglestarCondition46.jpg,NULL,<center><p style=" font-size: 1.4em;font-family: Book Antiqua%2C Palatino%2C serif;">All but one of the triangles that are above a star are connected to it.</p><p></p><center><img style="border:1px solid #08396d; border-radius: 25px; height:300px;" src="http://mdenic.psycholinguae.fr/donkeys/donkey-correlation-january/trianglestarCondition46.jpg"></center><p></p></center>,0.05
1556035621,b2259ed8ea0208da359cbcd4947b73f3,SliderQuestion1,36,0,FirstBlock-AllbutonesquarestarCondition51.jpg,NULL,<center><p style=" font-size: 1.4em;font-family: Book Antiqua%2C Palatino%2C serif;">All but one of the squares that are above a star are connected to it.</p><p></p><center><img style="border:1px solid #08396d; border-radius: 25px; height:300px;" src="http://mdenic.psycholinguae.fr/donkeys/donkey-correlation-january/squarestarCondition51.jpg"></center><p></p></center>,0.01
1556035621,b2259ed8ea0208da359cbcd4947b73f3,SliderQuestion1,31,0,FirstBlock-AllbutonesquarestarCondition35.jpg,NULL,<center><p style=" font-size: 1.4em;font-family: Book Antiqua%2C Palatino%2C serif;">All but one of the squares that are above a star are connected to it.</p><p></p><center><img style="border:1px solid #08396d; border-radius: 25px; height:300px;" src="http://mdenic.psycholinguae.fr/donkeys/donkey-correlation-january/squarestarCondition35.jpg"></center><p></p></center>,0.05
1556035621,b2259ed8ea0208da359cbcd4947b73f3,SliderQuestion1,32,0,FirstBlock-AllbutonesquarestarCondition36.jpg,NULL,<center><p style=" font-size: 1.4em;font-family: Book Antiqua%2C Palatino%2C serif;">All but one of the squares that are above a star are connected to it.</p><p></p><center><img style="border:1px solid #08396d; border-radius: 25px; height:300px;" src="http://mdenic.psycholinguae.fr/donkeys/donkey-correlation-january/squarestarCondition36.jpg"></center><p></p></center>,0.05
1556035621,b2259ed8ea0208da359cbcd4947b73f3,SliderQuestion1,17,0,FirstBlock-AllbutonetriangleheartCondition53.jpg,NULL,<center><p style=" font-size: 1.4em;font-family: Book Antiqua%2C Palatino%2C serif;">All but one of the triangles that are above a heart are connected to it.</p><p></p><center><img style="border:1px solid #08396d; border-radius: 25px; height:300px;" src="http://mdenic.psycholinguae.fr/donkeys/donkey-correlation-january/triangleheartCondition53.jpg"></center><p></p></center>,4.98
1556035621,b2259ed8ea0208da359cbcd4947b73f3,SliderQuestion1,42,0,FirstBlock-AllbutonesquarestarCondition43.jpg,NULL,<center><p style=" font-size: 1.4em;font-family: Book Antiqua%2C Palatino%2C serif;">All but one of the squares that are above a star are connected to it.</p><p></p><center><img style="border:1px solid #08396d; border-radius: 25px; height:300px;" src="http://mdenic.psycholinguae.fr/donkeys/donkey-correlation-january/squarestarCondition43.jpg"></center><p></p></center>,0.06
1556035621,b2259ed8ea0208da359cbcd4947b73f3,SliderQuestion1,25,0,FirstBlock-AllbutonesquarestarCondition33.jpg,NULL,<center><p style=" font-size: 1.4em;font-family: Book Antiqua%2C Palatino%2C serif;">All but one of the squares that are above a star are connected to it.</p><p></p><center><img style="border:1px solid #08396d; border-radius: 25px; height:300px;" src="http://mdenic.psycholinguae.fr/donkeys/donkey-correlation-january/squarestarCondition33.jpg"></center><p></p></center>,0.03
1556035621,b2259ed8ea0208da359cbcd4947b73f3,SliderQuestion1,15,0,FirstBlock-AllbutonesquarestarCondition61.jpg,NULL,<center><p style=" font-size: 1.4em;font-family: Book Antiqua%2C Palatino%2C serif;">All but one of the squares that are above a star are connected to it.</p><p></p><center><img style="border:1px solid #08396d; border-radius: 25px; height:300px;" src="http://mdenic.psycholinguae.fr/donkeys/donkey-correlation-january/squarestarCondition61.jpg"></center><p></p></center>,0.03
1556035621,b2259ed8ea0208da359cbcd4947b73f3,SliderQuestion1,11,0,FirstBlock-AllbutonesquarestarCondition63.jpg,NULL,<center><p style=" font-size: 1.4em;font-family: Book Antiqua%2C Palatino%2C serif;">All but one of the squares that are above a star are connected to it.</p><p></p><center><img style="border:1px solid #08396d; border-radius: 25px; height:300px;" src="http://mdenic.psycholinguae.fr/donkeys/donkey-correlation-january/squarestarCondition63.jpg"></center><p></p></center>,0.00
1556035621,b2259ed8ea0208da359cbcd4947b73f3,SliderQuestion1,40,0,FirstBlock-AllbutonesquarestarCondition42.jpg,NULL,<center><p style=" font-size: 1.4em;font-family: Book Antiqua%2C Palatino%2C serif;">All but one of the squares that are above a star are connected to it.</p><p></p><center><img style="border:1px solid #08396d; border-radius: 25px; height:300px;" src="http://mdenic.psycholinguae.fr/donkeys/donkey-correlation-january/squarestarCondition42.jpg"></center><p></p></center>,0.01
1556035621,b2259ed8ea0208da359cbcd4947b73f3,SliderQuestion1,12,0,FirstBlock-AllbutonesquarestarCondition62.jpg,NULL,<center><p style=" font-size: 1.4em;font-family: Book Antiqua%2C Palatino%2C serif;">All but one of the squares that are above a star are connected to it.</p><p></p><center><img style="border:1px solid #08396d; border-radius: 25px; height:300px;" src="http://mdenic.psycholinguae.fr/donkeys/donkey-correlation-january/squarestarCondition62.jpg"></center><p></p></center>,0.05
1556035621,b2259ed8ea0208da359cbcd4947b73f3,SliderQuestion1,37,0,FirstBlock-AllbutonesquareheartCondition45.jpg,NULL,<center><p style=" font-size: 1.4em;font-family: Book Antiqua%2C Palatino%2C serif;">All but one of the squares that are above a heart are connected to it.</p><p></p><center><img style="border:1px solid #08396d; border-radius: 25px; height:300px;" src="http://mdenic.psycholinguae.fr/donkeys/donkey-correlation-january/squareheartCondition45.jpg"></center><p></p></center>,0.05
1556035621,b2259ed8ea0208da359cbcd4947b73f3,SliderQuestion1,19,0,FirstBlock-AllbutonetriangleheartCondition44.jpg,NULL,<center><p style=" font-size: 1.4em;font-family: Book Antiqua%2C Palatino%2C serif;">All but one of the triangles that are above a heart are connected to it.</p><p></p><center><img style="border:1px solid #08396d; border-radius: 25px; height:300px;" src="http://mdenic.psycholinguae.fr/donkeys/donkey-correlation-january/triangleheartCondition44.jpg"></center><p></p></center>,0.03
1556035621,b2259ed8ea0208da359cbcd4947b73f3,SliderQuestion1,35,0,FirstBlock-AllbutonesquareheartCondition52.jpg,NULL,<center><p style=" font-size: 1.4em;font-family: Book Antiqua%2C Palatino%2C serif;">All but one of the squares that are above a heart are connected to it.</p><p></p><center><img style="border:1px solid #08396d; border-radius: 25px; height:300px;" src="http://mdenic.psycholinguae.fr/donkeys/donkey-correlation-january/squareheartCondition52.jpg"></center><p></p></center>,4.94
1556035621,b2259ed8ea0208da359cbcd4947b73f3,SliderQuestion1,20,0,FirstBlock-AllbutonetriangleheartCondition41.jpg,NULL,<center><p style=" font-size: 1.4em;font-family: Book Antiqua%2C Palatino%2C serif;">All but one of the triangles that are above a heart are connected to it.</p><p></p><center><img style="border:1px solid #08396d; border-radius: 25px; height:300px;" src="http://mdenic.psycholinguae.fr/donkeys/donkey-correlation-january/triangleheartCondition41.jpg"></center><p></p></center>,0.06
1556035621,b2259ed8ea0208da359cbcd4947b73f3,SliderQuestion1,24,0,FirstBlock-AllbutonesquareheartCondition31.jpg,NULL,<center><p style=" font-size: 1.4em;font-family: Book Antiqua%2C Palatino%2C serif;">All but one of the squares that are above a heart are connected to it.</p><p></p><center><img style="border:1px solid #08396d; border-radius: 25px; height:300px;" src="http://mdenic.psycholinguae.fr/donkeys/donkey-correlation-january/squareheartCondition31.jpg"></center><p></p></center>,0.01
1556035621,b2259ed8ea0208da359cbcd4947b73f3,SliderQuestion1,43,0,SecondBlock-AllbutonetriangleheartCondition14.jpg,NULL,<center><p style=" font-size: 1.4em;font-family: Book Antiqua%2C Palatino%2C serif;">All but one of the triangles that are above a heart are connected to it.</p><p></p><center><img style="border:1px solid #08396d; border-radius: 25px; height:300px;" src="http://mdenic.psycholinguae.fr/donkeys/donkey-correlation-january/triangleheartCondition14.jpg"></center><p></p></center>,0.03
1556035621,b2259ed8ea0208da359cbcd4947b73f3,SliderQuestion1,8,0,SecondBlock-AllbutonetrianglestarCondition56.jpg,NULL,<center><p style=" font-size: 1.4em;font-family: Book Antiqua%2C Palatino%2C serif;">All but one of the triangles that are above a star are connected to it.</p><p></p><center><img style="border:1px solid #08396d; border-radius: 25px; height:300px;" src="http://mdenic.psycholinguae.fr/donkeys/donkey-correlation-january/trianglestarCondition56.jpg"></center><p></p></center>,4.95
1556035621,b2259ed8ea0208da359cbcd4947b73f3,SliderQuestion1,34,0,SecondBlock-AllbutonesquarestarCondition23.jpg,NULL,<center><p style=" font-size: 1.4em;font-family: Book Antiqua%2C Palatino%2C serif;">All but one of the squares that are above a star are connected to it.</p><p></p><center><img style="border:1px solid #08396d; border-radius: 25px; height:300px;" src="http://mdenic.psycholinguae.fr/donkeys/donkey-correlation-january/squarestarCondition23.jpg"></center><p></p></center>,0.00
1556035621,b2259ed8ea0208da359cbcd4947b73f3,SliderQuestion1,16,0,SecondBlock-AllbutonesquarestarCondition12.jpg,NULL,<center><p style=" font-size: 1.4em;font-family: Book Antiqua%2C Palatino%2C serif;">All but one of the squares that are above a star are connected to it.</p><p></p><center><img style="border:1px solid #08396d; border-radius: 25px; height:300px;" src="http://mdenic.psycholinguae.fr/donkeys/donkey-correlation-january/squarestarCondition12.jpg"></center><p></p></center>,2.50
1556035621,b2259ed8ea0208da359cbcd4947b73f3,SliderQuestion1,26,0,SecondBlock-AllbutonetrianglestarCondition15.jpg,NULL,<center><p style=" font-size: 1.4em;font-family: Book Antiqua%2C Palatino%2C serif;">All but one of the triangles that are above a star are connected to it.</p><p></p><center><img style="border:1px solid #08396d; border-radius: 25px; height:300px;" src="http://mdenic.psycholinguae.fr/donkeys/donkey-correlation-january/trianglestarCondition15.jpg"></center><p></p></center>,0.04
1556035621,b2259ed8ea0208da359cbcd4947b73f3,SliderQuestion1,23,0,SecondBlock-AllbutonetrianglestarCondition25.jpg,NULL,<center><p style=" font-size: 1.4em;font-family: Book Antiqua%2C Palatino%2C serif;">All but one of the triangles that are above a star are connected to it.</p><p></p><center><img style="border:1px solid #08396d; border-radius: 25px; height:300px;" src="http://mdenic.psycholinguae.fr/donkeys/donkey-correlation-january/trianglestarCondition25.jpg"></center><p></p></center>,0.05
1556035621,b2259ed8ea0208da359cbcd4947b73f3,SliderQuestion1,27,0,SecondBlock-AllbutonesquarestarCondition26.jpg,NULL,<center><p style=" font-size: 1.4em;font-family: Book Antiqua%2C Palatino%2C serif;">All but one of the squares that are above a star are connected to it.</p><p></p><center><img style="border:1px solid #08396d; border-radius: 25px; height:300px;" src="http://mdenic.psycholinguae.fr/donkeys/donkey-correlation-january/squarestarCondition26.jpg"></center><p></p></center>,0.03
1556035621,b2259ed8ea0208da359cbcd4947b73f3,SliderQuestion1,10,0,SecondBlock-AllbutonesquarestarCondition66.jpg,NULL,<center><p style=" font-size: 1.4em;font-family: Book Antiqua%2C Palatino%2C serif;">All but one of the squares that are above a star are connected to it.</p><p></p><center><img style="border:1px solid #08396d; border-radius: 25px; height:300px;" src="http://mdenic.psycholinguae.fr/donkeys/donkey-correlation-january/squarestarCondition66.jpg"></center><p></p></center>,0.03
1556035621,b2259ed8ea0208da359cbcd4947b73f3,SliderQuestion1,33,0,SecondBlock-AllbutonesquarestarCondition22.jpg,NULL,<center><p style=" font-size: 1.4em;font-family: Book Antiqua%2C Palatino%2C serif;">All but one of the squares that are above a star are connected to it.</p><p></p><center><img style="border:1px solid #08396d; border-radius: 25px; height:300px;" src="http://mdenic.psycholinguae.fr/donkeys/donkey-correlation-january/squarestarCondition22.jpg"></center><p></p></center>,0.04
1556035621,b2259ed8ea0208da359cbcd4947b73f3,SliderQuestion1,38,0,SecondBlock-AllbutonetriangleheartCondition13.jpg,NULL,<center><p style=" font-size: 1.4em;font-family: Book Antiqua%2C Palatino%2C serif;">All but one of the triangles that are above a heart are connected to it.</p><p></p><center><img style="border:1px solid #08396d; border-radius: 25px; height:300px;" src="http://mdenic.psycholinguae.fr/donkeys/donkey-correlation-january/triangleheartCondition13.jpg"></center><p></p></center>,0.00
1556035621,b2259ed8ea0208da359cbcd4947b73f3,SliderQuestion1,18,0,SecondBlock-AllbutonesquarestarCondition11.jpg,NULL,<center><p style=" font-size: 1.4em;font-family: Book Antiqua%2C Palatino%2C serif;">All but one of the squares that are above a star are connected to it.</p><p></p><center><img style="border:1px solid #08396d; border-radius: 25px; height:300px;" src="http://mdenic.psycholinguae.fr/donkeys/donkey-correlation-january/squarestarCondition11.jpg"></center><p></p></center>,0.04
1556035621,b2259ed8ea0208da359cbcd4947b73f3,SliderQuestion1,30,0,SecondBlock-AllbutonesquarestarCondition21.jpg,NULL,<center><p style=" font-size: 1.4em;font-family: Book Antiqua%2C Palatino%2C serif;">All but one of the squares that are above a star are connected to it.</p><p></p><center><img style="border:1px solid #08396d; border-radius: 25px; height:300px;" src="http://mdenic.psycholinguae.fr/donkeys/donkey-correlation-january/squarestarCondition21.jpg"></center><p></p></center>,0.01
1556035621,b2259ed8ea0208da359cbcd4947b73f3,SliderQuestion1,9,0,SecondBlock-AllbutonetriangleheartCondition24.jpg,NULL,<center><p style=" font-size: 1.4em;font-family: Book Antiqua%2C Palatino%2C serif;">All but one of the triangles that are above a heart are connected to it.</p><p></p><center><img style="border:1px solid #08396d; border-radius: 25px; height:300px;" src="http://mdenic.psycholinguae.fr/donkeys/donkey-correlation-january/triangleheartCondition24.jpg"></center><p></p></center>,0.05
1556035621,b2259ed8ea0208da359cbcd4947b73f3,SliderQuestion1,29,0,SecondBlock-AllbutonetrianglestarCondition16.jpg,NULL,<center><p style=" font-size: 1.4em;font-family: Book Antiqua%2C Palatino%2C serif;">All but one of the triangles that are above a star are connected to it.</p><p></p><center><img style="border:1px solid #08396d; border-radius: 25px; height:300px;" src="http://mdenic.psycholinguae.fr/donkeys/donkey-correlation-january/trianglestarCondition16.jpg"></center><p></p></center>,0.04
1556035621,b2259ed8ea0208da359cbcd4947b73f3,SliderQuestion1,39,0,SecondBlock-AllbutonesquareheartCondition54.jpg,NULL,<center><p style=" font-size: 1.4em;font-family: Book Antiqua%2C Palatino%2C serif;">All but one of the squares that are above a heart are connected to it.</p><p></p><center><img style="border:1px solid #08396d; border-radius: 25px; height:300px;" src="http://mdenic.psycholinguae.fr/donkeys/donkey-correlation-january/squareheartCondition54.jpg"></center><p></p></center>,4.99
1556035621,b2259ed8ea0208da359cbcd4947b73f3,SliderQuestion1,21,0,SecondBlock-AllbutonetriangleheartCondition55.jpg,NULL,<center><p style=" font-size: 1.4em;font-family: Book Antiqua%2C Palatino%2C serif;">All but one of the triangles that are above a heart are connected to it.</p><p></p><center><img style="border:1px solid #08396d; border-radius: 25px; height:300px;" src="http://mdenic.psycholinguae.fr/donkeys/donkey-correlation-january/triangleheartCondition55.jpg"></center><p></p></center>,4.94
1556035621,b2259ed8ea0208da359cbcd4947b73f3,SliderQuestion1,28,0,SecondBlock-AllbutonetriangleheartCondition65.jpg,NULL,<center><p style=" font-size: 1.4em;font-family: Book Antiqua%2C Palatino%2C serif;">All but one of the triangles that are above a heart are connected to it.</p><p></p><center><img style="border:1px solid #08396d; border-radius: 25px; height:300px;" src="http://mdenic.psycholinguae.fr/donkeys/donkey-correlation-january/triangleheartCondition65.jpg"></center><p></p></center>,0.12
1556035621,b2259ed8ea0208da359cbcd4947b73f3,SliderQuestion1,41,0,SecondBlock-AllbutonetrianglestarCondition64.jpg,NULL,<center><p style=" font-size: 1.4em;font-family: Book Antiqua%2C Palatino%2C serif;">All but one of the triangles that are above a star are connected to it.</p><p></p><center><img style="border:1px solid #08396d; border-radius: 25px; height:300px;" src="http://mdenic.psycholinguae.fr/donkeys/donkey-correlation-january/trianglestarCondition64.jpg"></center><p></p></center>,0.00
# Columns below this comment are as follows:
# 1. Time results were received.
# 2. MD5 hash of participant's IP address.
# 3. Controller name.
# 4. Item number.
# 5. Element number.
# 6. Type.
# 7. Group.
# 8. Field name.
# 9. Field value.
1556035621,b2259ed8ea0208da359cbcd4947b73f3,NewForm,44,0,form,NULL,year,1980
1556035621,b2259ed8ea0208da359cbcd4947b73f3,NewForm,44,0,form,NULL,language,english
1556035621,b2259ed8ea0208da359cbcd4947b73f3,NewForm,44,0,form,NULL,idturk,A1HWB810RJBV2K
1556035621,b2259ed8ea0208da359cbcd4947b73f3,NewForm,44,0,form,NULL,comment,
1556035621,b2259ed8ea0208da359cbcd4947b73f3,NewForm,44,0,form,NULL,sex,female
1556035621,b2259ed8ea0208da359cbcd4947b73f3,NewForm,44,0,form,NULL,_REACTION_TIME_,15354
#
# Results on Tuesday April 23 2019 16:07:06 UTC.
# USER AGENT: Mozilla/5.0 (Windows NT 10.0; Win64; x64) AppleWebKit/537.36 (KHTML, like Gecko) Chrome/73.0.3683.103 Safari/537.36
# Design number was non-random = 0
#
# Columns below this comment are as follows:
# 1. Time results were received.
# 2. MD5 hash of participant's IP address.
# 3. Controller name.
# 4. Item number.
# 5. Element number.
# 6. Type.
# 7. Group.
# 8. Field name.
# 9. Field value.
1556035627,383162a545f95ff366e1c74d33814a64,NewForm,0,0,agreement,NULL,,yes
1556035627,383162a545f95ff366e1c74d33814a64,NewForm,0,0,agreement,NULL,_REACTION_TIME_,3549
1556035627,383162a545f95ff366e1c74d33814a64,NewForm,1,0,instructions1,NULL,,yes
1556035627,383162a545f95ff366e1c74d33814a64,NewForm,1,0,instructions1,NULL,_REACTION_TIME_,6594
# Columns below this comment are as follows:
# 1. Time results were received.
# 2. MD5 hash of participant's IP address.
# 3. Controller name.
# 4. Item number.
# 5. Element number.
# 6. Type.
# 7. Group.
# 8. html.
# 9. value.
1556035627,383162a545f95ff366e1c74d33814a64,SliderQuestion1,5,0,practice-donkey-true,NULL,<center><p style=" font-size: 1.4em;font-family: Book Antiqua%2C Palatino%2C serif;">Three squares are above at least one heart.</p><p></p><center><img style="border:1px solid #08396d; border-radius: 25px; height:300px;" src="http://mdenic.psycholinguae.fr/donkeys/donkey-correlation-january/practice-truedonkey-0.jpg"></center><p></p></center>,5.00
1556035627,383162a545f95ff366e1c74d33814a64,SliderQuestion1,6,0,practice-donkey-false,NULL,<center><p style=" font-size: 1.4em;font-family: Book Antiqua%2C Palatino%2C serif;">One triangle is connected to two stars.</p><p></p><center><img style="border:1px solid #08396d; border-radius: 25px; height:300px;" src="http://mdenic.psycholinguae.fr/donkeys/donkey-correlation-january/practice-falsedonkey-0.jpg"></center><p></p></center>,0.00
1556035627,383162a545f95ff366e1c74d33814a64,SliderQuestion1,7,0,practice-donkey-intermediate,NULL,<center><p style=" font-size: 1.4em;font-family: Book Antiqua%2C Palatino%2C serif;">Many squares are above at least one heart.</p><p></p><center><img style="border:1px solid #08396d; border-radius: 25px; height:300px;" src="http://mdenic.psycholinguae.fr/donkeys/donkey-correlation-january/practice-truedonkey-0.jpg"></center><p></p></center>,3.34
1556035627,383162a545f95ff366e1c74d33814a64,SliderQuestion1,35,0,FirstBlock-AllbutonesquareheartCondition52.jpg,NULL,<center><p style=" font-size: 1.4em;font-family: Book Antiqua%2C Palatino%2C serif;">All but one of the squares that are above a heart are connected to it.</p><p></p><center><img style="border:1px solid #08396d; border-radius: 25px; height:300px;" src="http://mdenic.psycholinguae.fr/donkeys/donkey-correlation-january/squareheartCondition52.jpg"></center><p></p></center>,0.00
1556035627,383162a545f95ff366e1c74d33814a64,SliderQuestion1,31,0,FirstBlock-AllbutonesquarestarCondition35.jpg,NULL,<center><p style=" font-size: 1.4em;font-family: Book Antiqua%2C Palatino%2C serif;">All but one of the squares that are above a star are connected to it.</p><p></p><center><img style="border:1px solid #08396d; border-radius: 25px; height:300px;" src="http://mdenic.psycholinguae.fr/donkeys/donkey-correlation-january/squarestarCondition35.jpg"></center><p></p></center>,4.13
1556035627,383162a545f95ff366e1c74d33814a64,SliderQuestion1,25,0,FirstBlock-AllbutonesquarestarCondition33.jpg,NULL,<center><p style=" font-size: 1.4em;font-family: Book Antiqua%2C Palatino%2C serif;">All but one of the squares that are above a star are connected to it.</p><p></p><center><img style="border:1px solid #08396d; border-radius: 25px; height:300px;" src="http://mdenic.psycholinguae.fr/donkeys/donkey-correlation-january/squarestarCondition33.jpg"></center><p></p></center>,4.05
1556035627,383162a545f95ff366e1c74d33814a64,SliderQuestion1,17,0,FirstBlock-AllbutonetriangleheartCondition53.jpg,NULL,<center><p style=" font-size: 1.4em;font-family: Book Antiqua%2C Palatino%2C serif;">All but one of the triangles that are above a heart are connected to it.</p><p></p><center><img style="border:1px solid #08396d; border-radius: 25px; height:300px;" src="http://mdenic.psycholinguae.fr/donkeys/donkey-correlation-january/triangleheartCondition53.jpg"></center><p></p></center>,0.00
1556035627,383162a545f95ff366e1c74d33814a64,SliderQuestion1,19,0,FirstBlock-AllbutonetriangleheartCondition44.jpg,NULL,<center><p style=" font-size: 1.4em;font-family: Book Antiqua%2C Palatino%2C serif;">All but one of the triangles that are above a heart are connected to it.</p><p></p><center><img style="border:1px solid #08396d; border-radius: 25px; height:300px;" src="http://mdenic.psycholinguae.fr/donkeys/donkey-correlation-january/triangleheartCondition44.jpg"></center><p></p></center>,5.00
1556035627,383162a545f95ff366e1c74d33814a64,SliderQuestion1,11,0,FirstBlock-AllbutonesquarestarCondition63.jpg,NULL,<center><p style=" font-size: 1.4em;font-family: Book Antiqua%2C Palatino%2C serif;">All but one of the squares that are above a star are connected to it.</p><p></p><center><img style="border:1px solid #08396d; border-radius: 25px; height:300px;" src="http://mdenic.psycholinguae.fr/donkeys/donkey-correlation-january/squarestarCondition63.jpg"></center><p></p></center>,0.00
1556035627,383162a545f95ff366e1c74d33814a64,SliderQuestion1,14,0,FirstBlock-AllbutonetrianglestarCondition46.jpg,NULL,<center><p style=" font-size: 1.4em;font-family: Book Antiqua%2C Palatino%2C serif;">All but one of the triangles that are above a star are connected to it.</p><p></p><center><img style="border:1px solid #08396d; border-radius: 25px; height:300px;" src="http://mdenic.psycholinguae.fr/donkeys/donkey-correlation-january/trianglestarCondition46.jpg"></center><p></p></center>,5.00
1556035627,383162a545f95ff366e1c74d33814a64,SliderQuestion1,15,0,FirstBlock-AllbutonesquarestarCondition61.jpg,NULL,<center><p style=" font-size: 1.4em;font-family: Book Antiqua%2C Palatino%2C serif;">All but one of the squares that are above a star are connected to it.</p><p></p><center><img style="border:1px solid #08396d; border-radius: 25px; height:300px;" src="http://mdenic.psycholinguae.fr/donkeys/donkey-correlation-january/squarestarCondition61.jpg"></center><p></p></center>,0.00
1556035627,383162a545f95ff366e1c74d33814a64,SliderQuestion1,37,0,FirstBlock-AllbutonesquareheartCondition45.jpg,NULL,<center><p style=" font-size: 1.4em;font-family: Book Antiqua%2C Palatino%2C serif;">All but one of the squares that are above a heart are connected to it.</p><p></p><center><img style="border:1px solid #08396d; border-radius: 25px; height:300px;" src="http://mdenic.psycholinguae.fr/donkeys/donkey-correlation-january/squareheartCondition45.jpg"></center><p></p></center>,5.00
1556035627,383162a545f95ff366e1c74d33814a64,SliderQuestion1,13,0,FirstBlock-AllbutonetriangleheartCondition34.jpg,NULL,<center><p style=" font-size: 1.4em;font-family: Book Antiqua%2C Palatino%2C serif;">All but one of the triangles that are above a heart are connected to it.</p><p></p><center><img style="border:1px solid #08396d; border-radius: 25px; height:300px;" src="http://mdenic.psycholinguae.fr/donkeys/donkey-correlation-january/triangleheartCondition34.jpg"></center><p></p></center>,5.00
1556035627,383162a545f95ff366e1c74d33814a64,SliderQuestion1,20,0,FirstBlock-AllbutonetriangleheartCondition41.jpg,NULL,<center><p style=" font-size: 1.4em;font-family: Book Antiqua%2C Palatino%2C serif;">All but one of the triangles that are above a heart are connected to it.</p><p></p><center><img style="border:1px solid #08396d; border-radius: 25px; height:300px;" src="http://mdenic.psycholinguae.fr/donkeys/donkey-correlation-january/triangleheartCondition41.jpg"></center><p></p></center>,5.00
1556035627,383162a545f95ff366e1c74d33814a64,SliderQuestion1,36,0,FirstBlock-AllbutonesquarestarCondition51.jpg,NULL,<center><p style=" font-size: 1.4em;font-family: Book Antiqua%2C Palatino%2C serif;">All but one of the squares that are above a star are connected to it.</p><p></p><center><img style="border:1px solid #08396d; border-radius: 25px; height:300px;" src="http://mdenic.psycholinguae.fr/donkeys/donkey-correlation-january/squarestarCondition51.jpg"></center><p></p></center>,0.00
1556035627,383162a545f95ff366e1c74d33814a64,SliderQuestion1,42,0,FirstBlock-AllbutonesquarestarCondition43.jpg,NULL,<center><p style=" font-size: 1.4em;font-family: Book Antiqua%2C Palatino%2C serif;">All but one of the squares that are above a star are connected to it.</p><p></p><center><img style="border:1px solid #08396d; border-radius: 25px; height:300px;" src="http://mdenic.psycholinguae.fr/donkeys/donkey-correlation-january/squarestarCondition43.jpg"></center><p></p></center>,5.00
1556035627,383162a545f95ff366e1c74d33814a64,SliderQuestion1,22,0,FirstBlock-AllbutonetrianglestarCondition32.jpg,NULL,<center><p style=" font-size: 1.4em;font-family: Book Antiqua%2C Palatino%2C serif;">All but one of the triangles that are above a star are connected to it.</p><p></p><center><img style="border:1px solid #08396d; border-radius: 25px; height:300px;" src="http://mdenic.psycholinguae.fr/donkeys/donkey-correlation-january/trianglestarCondition32.jpg"></center><p></p></center>,5.00
1556035627,383162a545f95ff366e1c74d33814a64,SliderQuestion1,12,0,FirstBlock-AllbutonesquarestarCondition62.jpg,NULL,<center><p style=" font-size: 1.4em;font-family: Book Antiqua%2C Palatino%2C serif;">All but one of the squares that are above a star are connected to it.</p><p></p><center><img style="border:1px solid #08396d; border-radius: 25px; height:300px;" src="http://mdenic.psycholinguae.fr/donkeys/donkey-correlation-january/squarestarCondition62.jpg"></center><p></p></center>,0.00
1556035627,383162a545f95ff366e1c74d33814a64,SliderQuestion1,40,0,FirstBlock-AllbutonesquarestarCondition42.jpg,NULL,<center><p style=" font-size: 1.4em;font-family: Book Antiqua%2C Palatino%2C serif;">All but one of the squares that are above a star are connected to it.</p><p></p><center><img style="border:1px solid #08396d; border-radius: 25px; height:300px;" src="http://mdenic.psycholinguae.fr/donkeys/donkey-correlation-january/squarestarCondition42.jpg"></center><p></p></center>,5.00
1556035627,383162a545f95ff366e1c74d33814a64,SliderQuestion1,32,0,FirstBlock-AllbutonesquarestarCondition36.jpg,NULL,<center><p style=" font-size: 1.4em;font-family: Book Antiqua%2C Palatino%2C serif;">All but one of the squares that are above a star are connected to it.</p><p></p><center><img style="border:1px solid #08396d; border-radius: 25px; height:300px;" src="http://mdenic.psycholinguae.fr/donkeys/donkey-correlation-january/squarestarCondition36.jpg"></center><p></p></center>,5.00
1556035627,383162a545f95ff366e1c74d33814a64,SliderQuestion1,24,0,FirstBlock-AllbutonesquareheartCondition31.jpg,NULL,<center><p style=" font-size: 1.4em;font-family: Book Antiqua%2C Palatino%2C serif;">All but one of the squares that are above a heart are connected to it.</p><p></p><center><img style="border:1px solid #08396d; border-radius: 25px; height:300px;" src="http://mdenic.psycholinguae.fr/donkeys/donkey-correlation-january/squareheartCondition31.jpg"></center><p></p></center>,5.00
1556035627,383162a545f95ff366e1c74d33814a64,SliderQuestion1,30,0,SecondBlock-AllbutonesquarestarCondition21.jpg,NULL,<center><p style=" font-size: 1.4em;font-family: Book Antiqua%2C Palatino%2C serif;">All but one of the squares that are above a star are connected to it.</p><p></p><center><img style="border:1px solid #08396d; border-radius: 25px; height:300px;" src="http://mdenic.psycholinguae.fr/donkeys/donkey-correlation-january/squarestarCondition21.jpg"></center><p></p></center>,0.00
1556035627,383162a545f95ff366e1c74d33814a64,SliderQuestion1,28,0,SecondBlock-AllbutonetriangleheartCondition65.jpg,NULL,<center><p style=" font-size: 1.4em;font-family: Book Antiqua%2C Palatino%2C serif;">All but one of the triangles that are above a heart are connected to it.</p><p></p><center><img style="border:1px solid #08396d; border-radius: 25px; height:300px;" src="http://mdenic.psycholinguae.fr/donkeys/donkey-correlation-january/triangleheartCondition65.jpg"></center><p></p></center>,0.00
1556035627,383162a545f95ff366e1c74d33814a64,SliderQuestion1,43,0,SecondBlock-AllbutonetriangleheartCondition14.jpg,NULL,<center><p style=" font-size: 1.4em;font-family: Book Antiqua%2C Palatino%2C serif;">All but one of the triangles that are above a heart are connected to it.</p><p></p><center><img style="border:1px solid #08396d; border-radius: 25px; height:300px;" src="http://mdenic.psycholinguae.fr/donkeys/donkey-correlation-january/triangleheartCondition14.jpg"></center><p></p></center>,0.00
1556035627,383162a545f95ff366e1c74d33814a64,SliderQuestion1,34,0,SecondBlock-AllbutonesquarestarCondition23.jpg,NULL,<center><p style=" font-size: 1.4em;font-family: Book Antiqua%2C Palatino%2C serif;">All but one of the squares that are above a star are connected to it.</p><p></p><center><img style="border:1px solid #08396d; border-radius: 25px; height:300px;" src="http://mdenic.psycholinguae.fr/donkeys/donkey-correlation-january/squarestarCondition23.jpg"></center><p></p></center>,0.00
1556035627,383162a545f95ff366e1c74d33814a64,SliderQuestion1,9,0,SecondBlock-AllbutonetriangleheartCondition24.jpg,NULL,<center><p style=" font-size: 1.4em;font-family: Book Antiqua%2C Palatino%2C serif;">All but one of the triangles that are above a heart are connected to it.</p><p></p><center><img style="border:1px solid #08396d; border-radius: 25px; height:300px;" src="http://mdenic.psycholinguae.fr/donkeys/donkey-correlation-january/triangleheartCondition24.jpg"></center><p></p></center>,0.00
1556035627,383162a545f95ff366e1c74d33814a64,SliderQuestion1,10,0,SecondBlock-AllbutonesquarestarCondition66.jpg,NULL,<center><p style=" font-size: 1.4em;font-family: Book Antiqua%2C Palatino%2C serif;">All but one of the squares that are above a star are connected to it.</p><p></p><center><img style="border:1px solid #08396d; border-radius: 25px; height:300px;" src="http://mdenic.psycholinguae.fr/donkeys/donkey-correlation-january/squarestarCondition66.jpg"></center><p></p></center>,0.00
1556035627,383162a545f95ff366e1c74d33814a64,SliderQuestion1,8,0,SecondBlock-AllbutonetrianglestarCondition56.jpg,NULL,<center><p style=" font-size: 1.4em;font-family: Book Antiqua%2C Palatino%2C serif;">All but one of the triangles that are above a star are connected to it.</p><p></p><center><img style="border:1px solid #08396d; border-radius: 25px; height:300px;" src="http://mdenic.psycholinguae.fr/donkeys/donkey-correlation-january/trianglestarCondition56.jpg"></center><p></p></center>,0.00
1556035627,383162a545f95ff366e1c74d33814a64,SliderQuestion1,16,0,SecondBlock-AllbutonesquarestarCondition12.jpg,NULL,<center><p style=" font-size: 1.4em;font-family: Book Antiqua%2C Palatino%2C serif;">All but one of the squares that are above a star are connected to it.</p><p></p><center><img style="border:1px solid #08396d; border-radius: 25px; height:300px;" src="http://mdenic.psycholinguae.fr/donkeys/donkey-correlation-january/squarestarCondition12.jpg"></center><p></p></center>,0.00
1556035627,383162a545f95ff366e1c74d33814a64,SliderQuestion1,18,0,SecondBlock-AllbutonesquarestarCondition11.jpg,NULL,<center><p style=" font-size: 1.4em;font-family: Book Antiqua%2C Palatino%2C serif;">All but one of the squares that are above a star are connected to it.</p><p></p><center><img style="border:1px solid #08396d; border-radius: 25px; height:300px;" src="http://mdenic.psycholinguae.fr/donkeys/donkey-correlation-january/squarestarCondition11.jpg"></center><p></p></center>,0.00
