#
# Results on Tuesday April 23 2019 16:11:15 UTC.
# USER AGENT: Mozilla/5.0 (Windows NT 10.0; Win64; x64) AppleWebKit/537.36 (KHTML, like Gecko) Chrome/73.0.3683.103 Safari/537.36
# Design number was non-random = 0
#
# Columns below this comment are as follows:
# 1. Time results were received.
# 2. MD5 hash of participant's IP address.
# 3. Controller name.
# 4. Item number.
# 5. Element number.
# 6. Type.
# 7. Group.
# 8. Field name.
# 9. Field value.
1556035875,946e5f2e2c915954b7ce6a2fa7bb5928,NewForm,0,0,agreement,NULL,,yes
1556035875,946e5f2e2c915954b7ce6a2fa7bb5928,NewForm,0,0,agreement,NULL,_REACTION_TIME_,10975
1556035875,946e5f2e2c915954b7ce6a2fa7bb5928,NewForm,1,0,instructions1,NULL,,yes
1556035875,946e5f2e2c915954b7ce6a2fa7bb5928,NewForm,1,0,instructions1,NULL,_REACTION_TIME_,19586
# Columns below this comment are as follows:
# 1. Time results were received.
# 2. MD5 hash of participant's IP address.
# 3. Controller name.
# 4. Item number.
# 5. Element number.
# 6. Type.
# 7. Group.
# 8. html.
# 9. value.
1556035875,946e5f2e2c915954b7ce6a2fa7bb5928,SliderQuestion1,9,0,practice-donkey-true,NULL,<center><p style=" font-size: 1.4em;font-family: Book Antiqua%2C Palatino%2C serif;">Three squares are above at least one heart.</p><p></p><center><img style="border:1px solid #08396d; border-radius: 25px; height:300px;" src="http://mdenic.psycholinguae.fr/donkeys/donkey-correlation-january/practice-truedonkey-0.jpg"></center><p></p></center>,5.00
1556035875,946e5f2e2c915954b7ce6a2fa7bb5928,SliderQuestion1,10,0,practice-donkey-false,NULL,<center><p style=" font-size: 1.4em;font-family: Book Antiqua%2C Palatino%2C serif;">One triangle is connected to two stars.</p><p></p><center><img style="border:1px solid #08396d; border-radius: 25px; height:300px;" src="http://mdenic.psycholinguae.fr/donkeys/donkey-correlation-january/practice-falsedonkey-0.jpg"></center><p></p></center>,0.00
1556035875,946e5f2e2c915954b7ce6a2fa7bb5928,SliderQuestion1,11,0,practice-donkey-intermediate,NULL,<center><p style=" font-size: 1.4em;font-family: Book Antiqua%2C Palatino%2C serif;">Many squares are above at least one heart.</p><p></p><center><img style="border:1px solid #08396d; border-radius: 25px; height:300px;" src="http://mdenic.psycholinguae.fr/donkeys/donkey-correlation-january/practice-truedonkey-0.jpg"></center><p></p></center>,3.09
1556035875,946e5f2e2c915954b7ce6a2fa7bb5928,SliderQuestion1,26,0,AllsquarestarFalse1.jpg,NULL,<center><p style=" font-size: 1.4em;font-family: Book Antiqua%2C Palatino%2C serif;">All of the squares that are above a star are connected to it.</p><p></p><center><img style="border:1px solid #08396d; border-radius: 25px; height:300px;" src="http://mdenic.psycholinguae.fr/donkeys/donkey-correlation-january-every/squarestarFalse1.jpg"></center><p></p></center>,0.00
1556035875,946e5f2e2c915954b7ce6a2fa7bb5928,SliderQuestion1,14,0,AllsquareheartWeak2.jpg,NULL,<center><p style=" font-size: 1.4em;font-family: Book Antiqua%2C Palatino%2C serif;">All of the squares that are above a heart are connected to it.</p><p></p><center><img style="border:1px solid #08396d; border-radius: 25px; height:300px;" src="http://mdenic.psycholinguae.fr/donkeys/donkey-correlation-january-every/squareheartWeak2.jpg"></center><p></p></center>,0.00
1556035875,946e5f2e2c915954b7ce6a2fa7bb5928,SliderQuestion1,22,0,AllsquarestarStrong4.jpg,NULL,<center><p style=" font-size: 1.4em;font-family: Book Antiqua%2C Palatino%2C serif;">All of the squares that are above a star are connected to it.</p><p></p><center><img style="border:1px solid #08396d; border-radius: 25px; height:300px;" src="http://mdenic.psycholinguae.fr/donkeys/donkey-correlation-january-every/squarestarStrong4.jpg"></center><p></p></center>,0.00
1556035875,946e5f2e2c915954b7ce6a2fa7bb5928,SliderQuestion1,24,0,AllsquareheartStrong2.jpg,NULL,<center><p style=" font-size: 1.4em;font-family: Book Antiqua%2C Palatino%2C serif;">All of the squares that are above a heart are connected to it.</p><p></p><center><img style="border:1px solid #08396d; border-radius: 25px; height:300px;" src="http://mdenic.psycholinguae.fr/donkeys/donkey-correlation-january-every/squareheartStrong2.jpg"></center><p></p></center>,0.00
1556035875,946e5f2e2c915954b7ce6a2fa7bb5928,SliderQuestion1,21,0,AllsquarestarStrong1.jpg,NULL,<center><p style=" font-size: 1.4em;font-family: Book Antiqua%2C Palatino%2C serif;">All of the squares that are above a star are connected to it.</p><p></p><center><img style="border:1px solid #08396d; border-radius: 25px; height:300px;" src="http://mdenic.psycholinguae.fr/donkeys/donkey-correlation-january-every/squarestarStrong1.jpg"></center><p></p></center>,5.00
1556035875,946e5f2e2c915954b7ce6a2fa7bb5928,SliderQuestion1,27,0,AlltriangleheartStrong3.jpg,NULL,<center><p style=" font-size: 1.4em;font-family: Book Antiqua%2C Palatino%2C serif;">All of the triangles that are above a heart are connected to it.</p><p></p><center><img style="border:1px solid #08396d; border-radius: 25px; height:300px;" src="http://mdenic.psycholinguae.fr/donkeys/donkey-correlation-january-every/triangleheartStrong3.jpg"></center><p></p></center>,5.00
1556035875,946e5f2e2c915954b7ce6a2fa7bb5928,SliderQuestion1,19,0,AlltriangleheartFalse6.jpg,NULL,<center><p style=" font-size: 1.4em;font-family: Book Antiqua%2C Palatino%2C serif;">All of the triangles that are above a heart are connected to it.</p><p></p><center><img style="border:1px solid #08396d; border-radius: 25px; height:300px;" src="http://mdenic.psycholinguae.fr/donkeys/donkey-correlation-january-every/triangleheartFalse6.jpg"></center><p></p></center>,0.00
1556035875,946e5f2e2c915954b7ce6a2fa7bb5928,SliderQuestion1,15,0,AlltrianglestarWeak4.jpg,NULL,<center><p style=" font-size: 1.4em;font-family: Book Antiqua%2C Palatino%2C serif;">All of the triangles that are above a star are connected to it.</p><p></p><center><img style="border:1px solid #08396d; border-radius: 25px; height:300px;" src="http://mdenic.psycholinguae.fr/donkeys/donkey-correlation-january-every/trianglestarWeak4.jpg"></center><p></p></center>,5.00
1556035875,946e5f2e2c915954b7ce6a2fa7bb5928,SliderQuestion1,20,0,AllsquareheartStrong6.jpg,NULL,<center><p style=" font-size: 1.4em;font-family: Book Antiqua%2C Palatino%2C serif;">All of the squares that are above a heart are connected to it.</p><p></p><center><img style="border:1px solid #08396d; border-radius: 25px; height:300px;" src="http://mdenic.psycholinguae.fr/donkeys/donkey-correlation-january-every/squareheartStrong6.jpg"></center><p></p></center>,5.00
1556035875,946e5f2e2c915954b7ce6a2fa7bb5928,SliderQuestion1,28,0,AllsquarestarFalse2.jpg,NULL,<center><p style=" font-size: 1.4em;font-family: Book Antiqua%2C Palatino%2C serif;">All of the squares that are above a star are connected to it.</p><p></p><center><img style="border:1px solid #08396d; border-radius: 25px; height:300px;" src="http://mdenic.psycholinguae.fr/donkeys/donkey-correlation-january-every/squarestarFalse2.jpg"></center><p></p></center>,0.00
1556035875,946e5f2e2c915954b7ce6a2fa7bb5928,SliderQuestion1,16,0,AllsquareheartWeak5.jpg,NULL,<center><p style=" font-size: 1.4em;font-family: Book Antiqua%2C Palatino%2C serif;">All of the squares that are above a heart are connected to it.</p><p></p><center><img style="border:1px solid #08396d; border-radius: 25px; height:300px;" src="http://mdenic.psycholinguae.fr/donkeys/donkey-correlation-january-every/squareheartWeak5.jpg"></center><p></p></center>,0.00
1556035875,946e5f2e2c915954b7ce6a2fa7bb5928,SliderQuestion1,13,0,AlltrianglestarFalse3.jpg,NULL,<center><p style=" font-size: 1.4em;font-family: Book Antiqua%2C Palatino%2C serif;">All of the triangles that are above a star are connected to it.</p><p></p><center><img style="border:1px solid #08396d; border-radius: 25px; height:300px;" src="http://mdenic.psycholinguae.fr/donkeys/donkey-correlation-january-every/trianglestarFalse3.jpg"></center><p></p></center>,0.00
1556035875,946e5f2e2c915954b7ce6a2fa7bb5928,SliderQuestion1,17,0,AlltriangleheartFalse5.jpg,NULL,<center><p style=" font-size: 1.4em;font-family: Book Antiqua%2C Palatino%2C serif;">All of the triangles that are above a heart are connected to it.</p><p></p><center><img style="border:1px solid #08396d; border-radius: 25px; height:300px;" src="http://mdenic.psycholinguae.fr/donkeys/donkey-correlation-january-every/triangleheartFalse5.jpg"></center><p></p></center>,0.00
1556035875,946e5f2e2c915954b7ce6a2fa7bb5928,SliderQuestion1,12,0,AlltrianglestarFalse4.jpg,NULL,<center><p style=" font-size: 1.4em;font-family: Book Antiqua%2C Palatino%2C serif;">All of the triangles that are above a star are connected to it.</p><p></p><center><img style="border:1px solid #08396d; border-radius: 25px; height:300px;" src="http://mdenic.psycholinguae.fr/donkeys/donkey-correlation-january-every/trianglestarFalse4.jpg"></center><p></p></center>,0.00
1556035875,946e5f2e2c915954b7ce6a2fa7bb5928,SliderQuestion1,29,0,AlltriangleheartStrong5.jpg,NULL,<center><p style=" font-size: 1.4em;font-family: Book Antiqua%2C Palatino%2C serif;">All of the triangles that are above a heart are connected to it.</p><p></p><center><img style="border:1px solid #08396d; border-radius: 25px; height:300px;" src="http://mdenic.psycholinguae.fr/donkeys/donkey-correlation-january-every/triangleheartStrong5.jpg"></center><p></p></center>,5.00
1556035875,946e5f2e2c915954b7ce6a2fa7bb5928,SliderQuestion1,25,0,AllsquarestarWeak3.jpg,NULL,<center><p style=" font-size: 1.4em;font-family: Book Antiqua%2C Palatino%2C serif;">All of the squares that are above a star are connected to it.</p><p></p><center><img style="border:1px solid #08396d; border-radius: 25px; height:300px;" src="http://mdenic.psycholinguae.fr/donkeys/donkey-correlation-january-every/squarestarWeak3.jpg"></center><p></p></center>,0.00
1556035875,946e5f2e2c915954b7ce6a2fa7bb5928,SliderQuestion1,18,0,AllsquareheartWeak6.jpg,NULL,<center><p style=" font-size: 1.4em;font-family: Book Antiqua%2C Palatino%2C serif;">All of the squares that are above a heart are connected to it.</p><p></p><center><img style="border:1px solid #08396d; border-radius: 25px; height:300px;" src="http://mdenic.psycholinguae.fr/donkeys/donkey-correlation-january-every/squareheartWeak6.jpg"></center><p></p></center>,0.12
1556035875,946e5f2e2c915954b7ce6a2fa7bb5928,SliderQuestion1,23,0,AlltriangleheartWeak1.jpg,NULL,<center><p style=" font-size: 1.4em;font-family: Book Antiqua%2C Palatino%2C serif;">All of the triangles that are above a heart are connected to it.</p><p></p><center><img style="border:1px solid #08396d; border-radius: 25px; height:300px;" src="http://mdenic.psycholinguae.fr/donkeys/donkey-correlation-january-every/triangleheartWeak1.jpg"></center><p></p></center>,0.00
# Columns below this comment are as follows:
# 1. Time results were received.
# 2. MD5 hash of participant's IP address.
# 3. Controller name.
# 4. Item number.
# 5. Element number.
# 6. Type.
# 7. Group.
# 8. Field name.
# 9. Field value.
1556035875,946e5f2e2c915954b7ce6a2fa7bb5928,NewForm,2,0,instructions2,NULL,,yes
1556035875,946e5f2e2c915954b7ce6a2fa7bb5928,NewForm,2,0,instructions2,NULL,_REACTION_TIME_,20308
# Columns below this comment are as follows:
# 1. Time results were received.
# 2. MD5 hash of participant's IP address.
# 3. Controller name.
# 4. Item number.
# 5. Element number.
# 6. Type.
# 7. Group.
# 8. html.
# 9. value.
1556035875,946e5f2e2c915954b7ce6a2fa7bb5928,SliderQuestion2,30,0,practice-inference-true,NULL,<p style=" font-size: 1.4em;font-family: Book Antiqua%2C Palatino%2C serif;">Bears from Zoopiter always win any song contest they participate in.</p><br><center><p style=" font-size: 1.2em;font-family: Book Antiqua%2C Palatino%2C serif;color: 3FB8AF;"><i>suggests that</i></p></center><br><p style=" font-size: 1.4em;font-family: Book Antiqua%2C Palatino%2C serif;">Bears from Zoopiter are very musical.</p>,5.00
1556035875,946e5f2e2c915954b7ce6a2fa7bb5928,SliderQuestion2,31,0,practice-inference-false,NULL,<p style=" font-size: 1.4em;font-family: Book Antiqua%2C Palatino%2C serif;">No leopard from Zoopiter visited New York.</p><br><center><p style=" font-size: 1.2em;font-family: Book Antiqua%2C Palatino%2C serif;color: 3FB8AF;"><i>suggests that</i></p></center><br><p style=" font-size: 1.4em;font-family: Book Antiqua%2C Palatino%2C serif;"> All leopards from Zoopiter visited the Statue of Liberty. </p>,0.00
1556035875,946e5f2e2c915954b7ce6a2fa7bb5928,SliderQuestion2,32,0,practice-inference-intermediate,NULL,<p style=" font-size: 1.4em;font-family: Book Antiqua%2C Palatino%2C serif;">Owls from Zoopiter enjoy <i class="chrome-extension-mutihighlight chrome-extension-mutihighlight-style-3">reading</i> poetry.</p><br><center><p style=" font-size: 1.2em;font-family: Book Antiqua%2C Palatino%2C serif;color: 3FB8AF;"><i>suggests that</i></p></center><br><p style=" font-size: 1.4em;font-family: Book Antiqua%2C Palatino%2C serif;"> Owls from Zoopiter are the animal species which cares the most about art.</p>,2.83
1556035875,946e5f2e2c915954b7ce6a2fa7bb5928,SliderQuestion2,43,0,InfScopeDEtravelled to Europetravelled to FranceAll,NULL,<p style=" font-size: 1.4em;font-family: Book Antiqua%2C Palatino%2C serif;">All of the tarantulas from Zoopiter travelled to Europe.</p><br><center><p style=" font-size: 1.2em;font-family: Book Antiqua%2C Palatino%2C serif;color: 3FB8AF;"><i>suggests that</i></p></center><br><p style=" font-size: 1.4em;font-family: Book Antiqua%2C Palatino%2C serif;"> All of the tarantulas from Zoopiter travelled to France.</p>,1.89
1556035875,946e5f2e2c915954b7ce6a2fa7bb5928,SliderQuestion2,61,0,InfRestrictorUEmosquitoinsectAll,NULL,<p style=" font-size: 1.4em;font-family: Book Antiqua%2C Palatino%2C serif;">All of the mosquitos from Zoopiter travelled to France.</p><br><center><p style=" font-size: 1.2em;font-family: Book Antiqua%2C Palatino%2C serif;color: 3FB8AF;"><i>suggests that</i></p></center><br><p style=" font-size: 1.4em;font-family: Book Antiqua%2C Palatino%2C serif;"> All of the insects from Zoopiter travelled to France.</p>,2.20
1556035875,946e5f2e2c915954b7ce6a2fa7bb5928,SliderQuestion2,74,0,InfTruecontrols2prepared a Japanese dishAll,NULL,<p style=" font-size: 1.4em;font-family: Book Antiqua%2C Palatino%2C serif;">All of the poodles from Zoopiter prepared a Japanese dish.</p><br><center><p style=" font-size: 1.2em;font-family: Book Antiqua%2C Palatino%2C serif;color: 3FB8AF;"><i>suggests that</i></p></center><br><p style=" font-size: 1.4em;font-family: Book Antiqua%2C Palatino%2C serif;"> There is a poodle from Zoopiter that prepared a Japanese dish.</p>,5.00
1556035875,946e5f2e2c915954b7ce6a2fa7bb5928,SliderQuestion2,71,0,InfTruecontrols2wrote a novelAll,NULL,<p style=" font-size: 1.4em;font-family: Book Antiqua%2C Palatino%2C serif;">All of the crocodiles from Zoopiter wrote a novel.</p><br><center><p style=" font-size: 1.2em;font-family: Book Antiqua%2C Palatino%2C serif;color: 3FB8AF;"><i>suggests that</i></p></center><br><p style=" font-size: 1.4em;font-family: Book Antiqua%2C Palatino%2C serif;"> There is a crocodile from Zoopiter that wrote a novel.</p>,4.75
1556035875,946e5f2e2c915954b7ce6a2fa7bb5928,SliderQuestion2,80,0,InfFalsecontrols1prepared a Japanese dishdidn't prepare a Japanese dishAll,NULL,<p style=" font-size: 1.4em;font-family: Book Antiqua%2C Palatino%2C serif;">All of the cobras from Zoopiter prepared a Japanese dish.</p><br><center><p style=" font-size: 1.2em;font-family: Book Antiqua%2C Palatino%2C serif;color: 3FB8AF;"><i>suggests that</i></p></center><br><p style=" font-size: 1.4em;font-family: Book Antiqua%2C Palatino%2C serif;"> Two cobras from Zoopiter didn't prepare a Japanese dish.</p>,0.00
1556035875,946e5f2e2c915954b7ce6a2fa7bb5928,SliderQuestion2,55,0,InfRestrictorDEbirddoveAll,NULL,<p style=" font-size: 1.4em;font-family: Book Antiqua%2C Palatino%2C serif;">All of the birds from Zoopiter travelled to France.</p><br><center><p style=" font-size: 1.2em;font-family: Book Antiqua%2C Palatino%2C serif;color: 3FB8AF;"><i>suggests that</i></p></center><br><p style=" font-size: 1.4em;font-family: Book Antiqua%2C Palatino%2C serif;"> All of the doves from Zoopiter travelled to France.</p>,5.00
1556035875,946e5f2e2c915954b7ce6a2fa7bb5928,SliderQuestion2,66,0,InfTruecontrols1talked to a sculptordidn't talk to a sculptorAll,NULL,<p style=" font-size: 1.4em;font-family: Book Antiqua%2C Palatino%2C serif;">All of the cobras from Zoopiter talked to a sculptor.</p><br><center><p style=" font-size: 1.2em;font-family: Book Antiqua%2C Palatino%2C serif;color: 3FB8AF;"><i>suggests that</i></p></center><br><p style=" font-size: 1.4em;font-family: Book Antiqua%2C Palatino%2C serif;"> There is no cobra from Zoopiter that didn't talk to a sculptor.</p>,5.00
1556035875,946e5f2e2c915954b7ce6a2fa7bb5928,SliderQuestion2,50,0,InfScopeUEprepared a Japanese dishprepared an Asian dishAll,NULL,<p style=" font-size: 1.4em;font-family: Book Antiqua%2C Palatino%2C serif;">All of the tarantulas from Zoopiter prepared a Japanese dish.</p><br><center><p style=" font-size: 1.2em;font-family: Book Antiqua%2C Palatino%2C serif;color: 3FB8AF;"><i>suggests that</i></p></center><br><p style=" font-size: 1.4em;font-family: Book Antiqua%2C Palatino%2C serif;"> All of the tarantulas from Zoopiter prepared an Asian dish.</p>,5.00
1556035875,946e5f2e2c915954b7ce6a2fa7bb5928,SliderQuestion2,47,0,InfScopeUEwrote a novelwrote a bookAll,NULL,<p style=" font-size: 1.4em;font-family: Book Antiqua%2C Palatino%2C serif;">All of the mosquitos from Zoopiter wrote a novel.</p><br><center><p style=" font-size: 1.2em;font-family: Book Antiqua%2C Palatino%2C serif;color: 3FB8AF;"><i>suggests that</i></p></center><br><p style=" font-size: 1.4em;font-family: Book Antiqua%2C Palatino%2C serif;"> All of the mosquitos from Zoopiter wrote a book.</p>,5.00
1556035875,946e5f2e2c915954b7ce6a2fa7bb5928,SliderQuestion2,76,0,InfFalsecontrols1watched a documentarydidn't watch a documentaryAll,NULL,<p style=" font-size: 1.4em;font-family: Book Antiqua%2C Palatino%2C serif;">All of the mosquitos from Zoopiter watched a documentary.</p><br><center><p style=" font-size: 1.2em;font-family: Book Antiqua%2C Palatino%2C serif;color: 3FB8AF;"><i>suggests that</i></p></center><br><p style=" font-size: 1.4em;font-family: Book Antiqua%2C Palatino%2C serif;"> Two mosquitos from Zoopiter didn't watch a documentary.</p>,0.00
1556035875,946e5f2e2c915954b7ce6a2fa7bb5928,SliderQuestion2,59,0,InfRestrictorUEcobrasnakeAll,NULL,<p style=" font-size: 1.4em;font-family: Book Antiqua%2C Palatino%2C serif;">All of the cobras from Zoopiter wrote a novel.</p><br><center><p style=" font-size: 1.2em;font-family: Book Antiqua%2C Palatino%2C serif;color: 3FB8AF;"><i>suggests that</i></p></center><br><p style=" font-size: 1.4em;font-family: Book Antiqua%2C Palatino%2C serif;"> All of the snakes from Zoopiter wrote a novel.</p>,0.78
1556035875,946e5f2e2c915954b7ce6a2fa7bb5928,SliderQuestion2,37,0,InfSymmetrytarantulatravel enthusiastAll,NULL,<p style=" font-size: 1.4em;font-family: Book Antiqua%2C Palatino%2C serif;">All of the tarantulas from Zoopiter are travel enthusiasts.</p><br><center><p style=" font-size: 1.2em;font-family: Book Antiqua%2C Palatino%2C serif;color: 3FB8AF;"><i>suggests that</i></p></center><br><p style=" font-size: 1.4em;font-family: Book Antiqua%2C Palatino%2C serif;"> All of the travel enthusiasts are tarantulas from Zoopiter.</p>,1.67
1556035875,946e5f2e2c915954b7ce6a2fa7bb5928,SliderQuestion2,63,0,InfTruecontrols1planted a rosedidn't plant a roseAll,NULL,<p style=" font-size: 1.4em;font-family: Book Antiqua%2C Palatino%2C serif;">All of the doves from Zoopiter planted a rose.</p><br><center><p style=" font-size: 1.2em;font-family: Book Antiqua%2C Palatino%2C serif;color: 3FB8AF;"><i>suggests that</i></p></center><br><p style=" font-size: 1.4em;font-family: Book Antiqua%2C Palatino%2C serif;"> There is no dove from Zoopiter that didn't plant a rose.</p>,5.00
1556035875,946e5f2e2c915954b7ce6a2fa7bb5928,SliderQuestion2,86,0,InfFalsecontrols2prepared a Japanese dishdidn't prepare a Japanese dishAll,NULL,<p style=" font-size: 1.4em;font-family: Book Antiqua%2C Palatino%2C serif;">All of the tarantulas from Zoopiter prepared a Japanese dish.</p><br><center><p style=" font-size: 1.2em;font-family: Book Antiqua%2C Palatino%2C serif;color: 3FB8AF;"><i>suggests that</i></p></center><br><p style=" font-size: 1.4em;font-family: Book Antiqua%2C Palatino%2C serif;"> Three tarantulas from Zoopiter didn't prepare a Japanese dish.</p>,0.00
1556035875,946e5f2e2c915954b7ce6a2fa7bb5928,SliderQuestion2,73,0,InfTruecontrols2travelled to FranceAll,NULL,<p style=" font-size: 1.4em;font-family: Book Antiqua%2C Palatino%2C serif;">All of the cobras from Zoopiter travelled to France.</p><br><center><p style=" font-size: 1.2em;font-family: Book Antiqua%2C Palatino%2C serif;color: 3FB8AF;"><i>suggests that</i></p></center><br><p style=" font-size: 1.4em;font-family: Book Antiqua%2C Palatino%2C serif;"> There is a cobra from Zoopiter that travelled to France.</p>,5.00
1556035875,946e5f2e2c915954b7ce6a2fa7bb5928,SliderQuestion2,45,0,InfScopeUEplanted a roseplanted a flowerAll,NULL,<p style=" font-size: 1.4em;font-family: Book Antiqua%2C Palatino%2C serif;">All of the cobras from Zoopiter planted a rose.</p><br><center><p style=" font-size: 1.2em;font-family: Book Antiqua%2C Palatino%2C serif;color: 3FB8AF;"><i>suggests that</i></p></center><br><p style=" font-size: 1.4em;font-family: Book Antiqua%2C Palatino%2C serif;"> All of the cobras from Zoopiter planted a flower.</p>,5.00
1556035875,946e5f2e2c915954b7ce6a2fa7bb5928,SliderQuestion2,54,0,InfRestrictorDEinsectmosquitoAll,NULL,<p style=" font-size: 1.4em;font-family: Book Antiqua%2C Palatino%2C serif;">All of the insects from Zoopiter talked to a sculptor.</p><br><center><p style=" font-size: 1.2em;font-family: Book Antiqua%2C Palatino%2C serif;color: 3FB8AF;"><i>suggests that</i></p></center><br><p style=" font-size: 1.4em;font-family: Book Antiqua%2C Palatino%2C serif;"> All of the mosquitos from Zoopiter talked to a sculptor.</p>,5.00
1556035875,946e5f2e2c915954b7ce6a2fa7bb5928,SliderQuestion2,85,0,InfFalsecontrols2travelled to Francedidn't travel to FranceAll,NULL,<p style=" font-size: 1.4em;font-family: Book Antiqua%2C Palatino%2C serif;">All of the crocodiles from Zoopiter travelled to France.</p><br><center><p style=" font-size: 1.2em;font-family: Book Antiqua%2C Palatino%2C serif;color: 3FB8AF;"><i>suggests that</i></p></center><br><p style=" font-size: 1.4em;font-family: Book Antiqua%2C Palatino%2C serif;"> Three crocodiles from Zoopiter didn't travel to France.</p>,0.00
1556035875,946e5f2e2c915954b7ce6a2fa7bb5928,SliderQuestion2,70,0,InfTruecontrols2watched a documentaryAll,NULL,<p style=" font-size: 1.4em;font-family: Book Antiqua%2C Palatino%2C serif;">All of the doves from Zoopiter watched a documentary.</p><br><center><p style=" font-size: 1.2em;font-family: Book Antiqua%2C Palatino%2C serif;color: 3FB8AF;"><i>suggests that</i></p></center><br><p style=" font-size: 1.4em;font-family: Book Antiqua%2C Palatino%2C serif;"> There is a dove from Zoopiter that watched a documentary.</p>,5.00
1556035875,946e5f2e2c915954b7ce6a2fa7bb5928,SliderQuestion2,52,0,InfRestrictorDEsnakecobraAll,NULL,<p style=" font-size: 1.4em;font-family: Book Antiqua%2C Palatino%2C serif;">All of the snakes from Zoopiter watched a documentary.</p><br><center><p style=" font-size: 1.2em;font-family: Book Antiqua%2C Palatino%2C serif;color: 3FB8AF;"><i>suggests that</i></p></center><br><p style=" font-size: 1.4em;font-family: Book Antiqua%2C Palatino%2C serif;"> All of the cobras from Zoopiter watched a documentary.</p>,5.00
1556035875,946e5f2e2c915954b7ce6a2fa7bb5928,SliderQuestion2,36,0,InfSymmetrycrocodiletheater enthusiastAll,NULL,<p style=" font-size: 1.4em;font-family: Book Antiqua%2C Palatino%2C serif;">All of the crocodiles from Zoopiter are theater enthusiasts.</p><br><center><p style=" font-size: 1.2em;font-family: Book Antiqua%2C Palatino%2C serif;color: 3FB8AF;"><i>suggests that</i></p></center><br><p style=" font-size: 1.4em;font-family: Book Antiqua%2C Palatino%2C serif;"> All of the theater enthusiasts are crocodiles from Zoopiter.</p>,5.00
1556035875,946e5f2e2c915954b7ce6a2fa7bb5928,SliderQuestion2,84,0,InfFalsecontrols2talked to a sculptordidn't talk to a sculptorAll,NULL,<p style=" font-size: 1.4em;font-family: Book Antiqua%2C Palatino%2C serif;">All of the doves from Zoopiter talked to a sculptor.</p><br><center><p style=" font-size: 1.2em;font-family: Book Antiqua%2C Palatino%2C serif;color: 3FB8AF;"><i>suggests that</i></p></center><br><p style=" font-size: 1.4em;font-family: Book Antiqua%2C Palatino%2C serif;"> Three doves from Zoopiter didn't talk to a sculptor.</p>,0.06
1556035875,946e5f2e2c915954b7ce6a2fa7bb5928,SliderQuestion2,39,0,InfScopeDEplanted a flowerplanted a roseAll,NULL,<p style=" font-size: 1.4em;font-family: Book Antiqua%2C Palatino%2C serif;">All of the poodles from Zoopiter planted a flower.</p><br><center><p style=" font-size: 1.2em;font-family: Book Antiqua%2C Palatino%2C serif;color: 3FB8AF;"><i>suggests that</i></p></center><br><p style=" font-size: 1.4em;font-family: Book Antiqua%2C Palatino%2C serif;"> All of the poodles from Zoopiter planted a rose.</p>,1.22
1556035875,946e5f2e2c915954b7ce6a2fa7bb5928,SliderQuestion2,49,0,InfScopeUEtravelled to Francetravelled to EuropeAll,NULL,<p style=" font-size: 1.4em;font-family: Book Antiqua%2C Palatino%2C serif;">All of the crocodiles from Zoopiter travelled to France.</p><br><center><p style=" font-size: 1.2em;font-family: Book Antiqua%2C Palatino%2C serif;color: 3FB8AF;"><i>suggests that</i></p></center><br><p style=" font-size: 1.4em;font-family: Book Antiqua%2C Palatino%2C serif;"> All of the crocodiles from Zoopiter travelled to Europe.</p>,5.00
1556035875,946e5f2e2c915954b7ce6a2fa7bb5928,SliderQuestion2,48,0,InfScopeUEtalked to a sculptortalked to an artistAll,NULL,<p style=" font-size: 1.4em;font-family: Book Antiqua%2C Palatino%2C serif;">All of the doves from Zoopiter talked to a sculptor.</p><br><center><p style=" font-size: 1.2em;font-family: Book Antiqua%2C Palatino%2C serif;color: 3FB8AF;"><i>suggests that</i></p></center><br><p style=" font-size: 1.4em;font-family: Book Antiqua%2C Palatino%2C serif;"> All of the doves from Zoopiter talked to an artist.</p>,5.00
1556035875,946e5f2e2c915954b7ce6a2fa7bb5928,SliderQuestion2,78,0,InfFalsecontrols1talked to a sculptordidn't talk to a sculptorAll,NULL,<p style=" font-size: 1.4em;font-family: Book Antiqua%2C Palatino%2C serif;">All of the crocodiles from Zoopiter talked to a sculptor.</p><br><center><p style=" font-size: 1.2em;font-family: Book Antiqua%2C Palatino%2C serif;color: 3FB8AF;"><i>suggests that</i></p></center><br><p style=" font-size: 1.4em;font-family: Book Antiqua%2C Palatino%2C serif;"> Two crocodiles from Zoopiter didn't talk to a sculptor.</p>,0.00
1556035875,946e5f2e2c915954b7ce6a2fa7bb5928,SliderQuestion2,67,0,InfTruecontrols1travelled to Francedidn't travel to FranceAll,NULL,<p style=" font-size: 1.4em;font-family: Book Antiqua%2C Palatino%2C serif;">All of the poodles from Zoopiter travelled to France.</p><br><center><p style=" font-size: 1.2em;font-family: Book Antiqua%2C Palatino%2C serif;color: 3FB8AF;"><i>suggests that</i></p></center><br><p style=" font-size: 1.4em;font-family: Book Antiqua%2C Palatino%2C serif;"> There is no poodle from Zoopiter that didn't travel to France.</p>,5.00
1556035875,946e5f2e2c915954b7ce6a2fa7bb5928,SliderQuestion2,69,0,InfTruecontrols2planted a roseAll,NULL,<p style=" font-size: 1.4em;font-family: Book Antiqua%2C Palatino%2C serif;">All of the mosquitos from Zoopiter planted a rose.</p><br><center><p style=" font-size: 1.2em;font-family: Book Antiqua%2C Palatino%2C serif;color: 3FB8AF;"><i>suggests that</i></p></center><br><p style=" font-size: 1.4em;font-family: Book Antiqua%2C Palatino%2C serif;"> There is a mosquito from Zoopiter that planted a rose.</p>,5.00
1556035875,946e5f2e2c915954b7ce6a2fa7bb5928,SliderQuestion2,72,0,InfTruecontrols2talked to a sculptorAll,NULL,<p style=" font-size: 1.4em;font-family: Book Antiqua%2C Palatino%2C serif;">All of the tarantulas from Zoopiter talked to a sculptor.</p><br><center><p style=" font-size: 1.2em;font-family: Book Antiqua%2C Palatino%2C serif;color: 3FB8AF;"><i>suggests that</i></p></center><br><p style=" font-size: 1.4em;font-family: Book Antiqua%2C Palatino%2C serif;"> There is a tarantula from Zoopiter that talked to a sculptor.</p>,5.00
1556035875,946e5f2e2c915954b7ce6a2fa7bb5928,SliderQuestion2,57,0,InfRestrictorUEcrocodilereptileAll,NULL,<p style=" font-size: 1.4em;font-family: Book Antiqua%2C Palatino%2C serif;">All of the crocodiles from Zoopiter planted a rose.</p><br><center><p style=" font-size: 1.2em;font-family: Book Antiqua%2C Palatino%2C serif;color: 3FB8AF;"><i>suggests that</i></p></center><br><p style=" font-size: 1.4em;font-family: Book Antiqua%2C Palatino%2C serif;"> All of the reptiles from Zoopiter planted a rose.</p>,0.66
1556035875,946e5f2e2c915954b7ce6a2fa7bb5928,SliderQuestion2,64,0,InfTruecontrols1watched a documentarydidn't watch a documentaryAll,NULL,<p style=" font-size: 1.4em;font-family: Book Antiqua%2C Palatino%2C serif;">All of the crocodiles from Zoopiter watched a documentary.</p><br><center><p style=" font-size: 1.2em;font-family: Book Antiqua%2C Palatino%2C serif;color: 3FB8AF;"><i>suggests that</i></p></center><br><p style=" font-size: 1.4em;font-family: Book Antiqua%2C Palatino%2C serif;"> There is no crocodile from Zoopiter that didn't watch a documentary.</p>,5.00
1556035875,946e5f2e2c915954b7ce6a2fa7bb5928,SliderQuestion2,46,0,InfScopeUEwatched a documentarywatched a filmAll,NULL,<p style=" font-size: 1.4em;font-family: Book Antiqua%2C Palatino%2C serif;">All of the poodles from Zoopiter watched a documentary.</p><br><center><p style=" font-size: 1.2em;font-family: Book Antiqua%2C Palatino%2C serif;color: 3FB8AF;"><i>suggests that</i></p></center><br><p style=" font-size: 1.4em;font-family: Book Antiqua%2C Palatino%2C serif;"> All of the poodles from Zoopiter watched a film.</p>,5.00
1556035875,946e5f2e2c915954b7ce6a2fa7bb5928,SliderQuestion2,51,0,InfRestrictorDEspidertarantulaAll,NULL,<p style=" font-size: 1.4em;font-family: Book Antiqua%2C Palatino%2C serif;">All of the spiders from Zoopiter planted a rose.</p><br><center><p style=" font-size: 1.2em;font-family: Book Antiqua%2C Palatino%2C serif;color: 3FB8AF;"><i>suggests that</i></p></center><br><p style=" font-size: 1.4em;font-family: Book Antiqua%2C Palatino%2C serif;"> All of the tarantulas from Zoopiter planted a rose.</p>,5.00
1556035875,946e5f2e2c915954b7ce6a2fa7bb5928,SliderQuestion2,68,0,InfTruecontrols1prepared a Japanese dishdidn't prepare a Japanese dishAll,NULL,<p style=" font-size: 1.4em;font-family: Book Antiqua%2C Palatino%2C serif;">All of the mosquitos from Zoopiter prepared a Japanese dish.</p><br><center><p style=" font-size: 1.2em;font-family: Book Antiqua%2C Palatino%2C serif;color: 3FB8AF;"><i>suggests that</i></p></center><br><p style=" font-size: 1.4em;font-family: Book Antiqua%2C Palatino%2C serif;"> There is no mosquito from Zoopiter that didn't prepare a Japanese dish.</p>,5.00
1556035875,946e5f2e2c915954b7ce6a2fa7bb5928,SliderQuestion2,75,0,InfFalsecontrols1planted a rosedidn't plant a roseAll,NULL,<p style=" font-size: 1.4em;font-family: Book Antiqua%2C Palatino%2C serif;">All of the poodles from Zoopiter planted a rose.</p><br><center><p style=" font-size: 1.2em;font-family: Book Antiqua%2C Palatino%2C serif;color: 3FB8AF;"><i>suggests that</i></p></center><br><p style=" font-size: 1.4em;font-family: Book Antiqua%2C Palatino%2C serif;"> Two poodles from Zoopiter didn't plant a rose.</p>,0.00
1556035875,946e5f2e2c915954b7ce6a2fa7bb5928,SliderQuestion2,79,0,InfFalsecontrols1travelled to Francedidn't travel to FranceAll,NULL,<p style=" font-size: 1.4em;font-family: Book Antiqua%2C Palatino%2C serif;">All of the tarantulas from Zoopiter travelled to France.</p><br><center><p style=" font-size: 1.2em;font-family: Book Antiqua%2C Palatino%2C serif;color: 3FB8AF;"><i>suggests that</i></p></center><br><p style=" font-size: 1.4em;font-family: Book Antiqua%2C Palatino%2C serif;"> Two tarantulas from Zoopiter didn't travel to France.</p>,0.00
1556035875,946e5f2e2c915954b7ce6a2fa7bb5928,SliderQuestion2,56,0,InfRestrictorDEreptilecrocodileAll,NULL,<p style=" font-size: 1.4em;font-family: Book Antiqua%2C Palatino%2C serif;">All of the reptiles from Zoopiter prepared a Japanese dish.</p><br><center><p style=" font-size: 1.2em;font-family: Book Antiqua%2C Palatino%2C serif;color: 3FB8AF;"><i>suggests that</i></p></center><br><p style=" font-size: 1.4em;font-family: Book Antiqua%2C Palatino%2C serif;"> All of the crocodiles from Zoopiter prepared a Japanese dish.</p>,5.00
1556035875,946e5f2e2c915954b7ce6a2fa7bb5928,SliderQuestion2,44,0,InfScopeDEprepared an Asian dishprepared a Japanese dishAll,NULL,<p style=" font-size: 1.4em;font-family: Book Antiqua%2C Palatino%2C serif;">All of the cobras from Zoopiter prepared an Asian dish.</p><br><center><p style=" font-size: 1.2em;font-family: Book Antiqua%2C Palatino%2C serif;color: 3FB8AF;"><i>suggests that</i></p></center><br><p style=" font-size: 1.4em;font-family: Book Antiqua%2C Palatino%2C serif;"> All of the cobras from Zoopiter prepared a Japanese dish.</p>,0.83
1556035875,946e5f2e2c915954b7ce6a2fa7bb5928,SliderQuestion2,77,0,InfFalsecontrols1wrote a noveldidn't write a novelAll,NULL,<p style=" font-size: 1.4em;font-family: Book Antiqua%2C Palatino%2C serif;">All of the doves from Zoopiter wrote a novel.</p><br><center><p style=" font-size: 1.2em;font-family: Book Antiqua%2C Palatino%2C serif;color: 3FB8AF;"><i>suggests that</i></p></center><br><p style=" font-size: 1.4em;font-family: Book Antiqua%2C Palatino%2C serif;"> Two doves from Zoopiter didn't write a novel.</p>,0.13
1556035875,946e5f2e2c915954b7ce6a2fa7bb5928,SliderQuestion2,40,0,InfScopeDEwatched a filmwatched a documentaryAll,NULL,<p style=" font-size: 1.4em;font-family: Book Antiqua%2C Palatino%2C serif;">All of the mosquitos from Zoopiter watched a film.</p><br><center><p style=" font-size: 1.2em;font-family: Book Antiqua%2C Palatino%2C serif;color: 3FB8AF;"><i>suggests that</i></p></center><br><p style=" font-size: 1.4em;font-family: Book Antiqua%2C Palatino%2C serif;"> All of the mosquitos from Zoopiter watched a documentary.</p>,5.00
1556035875,946e5f2e2c915954b7ce6a2fa7bb5928,SliderQuestion2,41,0,InfScopeDEwrote a bookwrote a novelAll,NULL,<p style=" font-size: 1.4em;font-family: Book Antiqua%2C Palatino%2C serif;">All of the doves from Zoopiter wrote a book.</p><br><center><p style=" font-size: 1.2em;font-family: Book Antiqua%2C Palatino%2C serif;color: 3FB8AF;"><i>suggests that</i></p></center><br><p style=" font-size: 1.4em;font-family: Book Antiqua%2C Palatino%2C serif;"> All of the doves from Zoopiter wrote a novel.</p>,1.07
1556035875,946e5f2e2c915954b7ce6a2fa7bb5928,SliderQuestion2,82,0,InfFalsecontrols2watched a documentarydidn't watch a documentaryAll,NULL,<p style=" font-size: 1.4em;font-family: Book Antiqua%2C Palatino%2C serif;">All of the poodles from Zoopiter watched a documentary.</p><br><center><p style=" font-size: 1.2em;font-family: Book Antiqua%2C Palatino%2C serif;color: 3FB8AF;"><i>suggests that</i></p></center><br><p style=" font-size: 1.4em;font-family: Book Antiqua%2C Palatino%2C serif;"> Three poodles from Zoopiter didn't watch a documentary.</p>,0.07
1556035875,946e5f2e2c915954b7ce6a2fa7bb5928,SliderQuestion2,35,0,InfSymmetrypoodlemusic enthusiastAll,NULL,<p style=" font-size: 1.4em;font-family: Book Antiqua%2C Palatino%2C serif;">All of the poodles from Zoopiter are music enthusiasts.</p><br><center><p style=" font-size: 1.2em;font-family: Book Antiqua%2C Palatino%2C serif;color: 3FB8AF;"><i>suggests that</i></p></center><br><p style=" font-size: 1.4em;font-family: Book Antiqua%2C Palatino%2C serif;"> All of the music enthusiasts are poodles from Zoopiter.</p>,0.86
1556035875,946e5f2e2c915954b7ce6a2fa7bb5928,SliderQuestion2,65,0,InfTruecontrols1wrote a noveldidn't write a novelAll,NULL,<p style=" font-size: 1.4em;font-family: Book Antiqua%2C Palatino%2C serif;">All of the tarantulas from Zoopiter wrote a novel.</p><br><center><p style=" font-size: 1.2em;font-family: Book Antiqua%2C Palatino%2C serif;color: 3FB8AF;"><i>suggests that</i></p></center><br><p style=" font-size: 1.4em;font-family: Book Antiqua%2C Palatino%2C serif;"> There is no tarantula from Zoopiter that didn't write a novel.</p>,5.00
1556035875,946e5f2e2c915954b7ce6a2fa7bb5928,SliderQuestion2,81,0,InfFalsecontrols2planted a rosedidn't plant a roseAll,NULL,<p style=" font-size: 1.4em;font-family: Book Antiqua%2C Palatino%2C serif;">All of the cobras from Zoopiter planted a rose.</p><br><center><p style=" font-size: 1.2em;font-family: Book Antiqua%2C Palatino%2C serif;color: 3FB8AF;"><i>suggests that</i></p></center><br><p style=" font-size: 1.4em;font-family: Book Antiqua%2C Palatino%2C serif;"> Three cobras from Zoopiter didn't plant a rose.</p>,0.00
1556035875,946e5f2e2c915954b7ce6a2fa7bb5928,SliderQuestion2,53,0,InfRestrictorDEdogpoodleAll,NULL,<p style=" font-size: 1.4em;font-family: Book Antiqua%2C Palatino%2C serif;">All of the dogs from Zoopiter wrote a novel.</p><br><center><p style=" font-size: 1.2em;font-family: Book Antiqua%2C Palatino%2C serif;color: 3FB8AF;"><i>suggests that</i></p></center><br><p style=" font-size: 1.4em;font-family: Book Antiqua%2C Palatino%2C serif;"> All of the poodles from Zoopiter wrote a novel.</p>,5.00
1556035875,946e5f2e2c915954b7ce6a2fa7bb5928,SliderQuestion2,60,0,InfRestrictorUEpoodledogAll,NULL,<p style=" font-size: 1.4em;font-family: Book Antiqua%2C Palatino%2C serif;">All of the poodles from Zoopiter talked to a sculptor.</p><br><center><p style=" font-size: 1.2em;font-family: Book Antiqua%2C Palatino%2C serif;color: 3FB8AF;"><i>suggests that</i></p></center><br><p style=" font-size: 1.4em;font-family: Book Antiqua%2C Palatino%2C serif;"> All of the dogs from Zoopiter talked to a sculptor.</p>,0.79
1556035875,946e5f2e2c915954b7ce6a2fa7bb5928,SliderQuestion2,83,0,InfFalsecontrols2wrote a noveldidn't write a novelAll,NULL,<p style=" font-size: 1.4em;font-family: Book Antiqua%2C Palatino%2C serif;">All of the mosquitos from Zoopiter wrote a novel.</p><br><center><p style=" font-size: 1.2em;font-family: Book Antiqua%2C Palatino%2C serif;color: 3FB8AF;"><i>suggests that</i></p></center><br><p style=" font-size: 1.4em;font-family: Book Antiqua%2C Palatino%2C serif;"> Three mosquitos from Zoopiter didn't write a novel.</p>,0.00
1556035875,946e5f2e2c915954b7ce6a2fa7bb5928,SliderQuestion2,34,0,InfSymmetrydoveliterature enthusiastAll,NULL,<p style=" font-size: 1.4em;font-family: Book Antiqua%2C Palatino%2C serif;">All of the doves from Zoopiter are literature enthusiasts.</p><br><center><p style=" font-size: 1.2em;font-family: Book Antiqua%2C Palatino%2C serif;color: 3FB8AF;"><i>suggests that</i></p></center><br><p style=" font-size: 1.4em;font-family: Book Antiqua%2C Palatino%2C serif;"> All of the literature enthusiasts are doves from Zoopiter.</p>,0.87
1556035875,946e5f2e2c915954b7ce6a2fa7bb5928,SliderQuestion2,33,0,InfSymmetrymosquitocinema enthusiastAll,NULL,<p style=" font-size: 1.4em;font-family: Book Antiqua%2C Palatino%2C serif;">All of the mosquitos from Zoopiter are cinema enthusiasts.</p><br><center><p style=" font-size: 1.2em;font-family: Book Antiqua%2C Palatino%2C serif;color: 3FB8AF;"><i>suggests that</i></p></center><br><p style=" font-size: 1.4em;font-family: Book Antiqua%2C Palatino%2C serif;"> All of the cinema enthusiasts are mosquitos from Zoopiter.</p>,1.09
1556035875,946e5f2e2c915954b7ce6a2fa7bb5928,SliderQuestion2,38,0,InfSymmetrycobramuseum enthusiastAll,NULL,<p style=" font-size: 1.4em;font-family: Book Antiqua%2C Palatino%2C serif;">All of the cobras from Zoopiter are museum enthusiasts.</p><br><center><p style=" font-size: 1.2em;font-family: Book Antiqua%2C Palatino%2C serif;color: 3FB8AF;"><i>suggests that</i></p></center><br><p style=" font-size: 1.4em;font-family: Book Antiqua%2C Palatino%2C serif;"> All of the museum enthusiasts are cobras from Zoopiter.</p>,2.50
1556035875,946e5f2e2c915954b7ce6a2fa7bb5928,SliderQuestion2,62,0,InfRestrictorUEdovebirdAll,NULL,<p style=" font-size: 1.4em;font-family: Book Antiqua%2C Palatino%2C serif;">All of the doves from Zoopiter prepared a Japanese dish.</p><br><center><p style=" font-size: 1.2em;font-family: Book Antiqua%2C Palatino%2C serif;color: 3FB8AF;"><i>suggests that</i></p></center><br><p style=" font-size: 1.4em;font-family: Book Antiqua%2C Palatino%2C serif;"> All of the birds from Zoopiter prepared a Japanese dish.</p>,1.24
1556035875,946e5f2e2c915954b7ce6a2fa7bb5928,SliderQuestion2,58,0,InfRestrictorUEtarantulaspiderAll,NULL,<p style=" font-size: 1.4em;font-family: Book Antiqua%2C Palatino%2C serif;">All of the tarantulas from Zoopiter watched a documentary.</p><br><center><p style=" font-size: 1.2em;font-family: Book Antiqua%2C Palatino%2C serif;color: 3FB8AF;"><i>suggests that</i></p></center><br><p style=" font-size: 1.4em;font-family: Book Antiqua%2C Palatino%2C serif;"> All of the spiders from Zoopiter watched a documentary.</p>,0.92
1556035875,946e5f2e2c915954b7ce6a2fa7bb5928,SliderQuestion2,42,0,InfScopeDEtalked to an artisttalked to a sculptorAll,NULL,<p style=" font-size: 1.4em;font-family: Book Antiqua%2C Palatino%2C serif;">All of the crocodiles from Zoopiter talked to an artist.</p><br><center><p style=" font-size: 1.2em;font-family: Book Antiqua%2C Palatino%2C serif;color: 3FB8AF;"><i>suggests that</i></p></center><br><p style=" font-size: 1.4em;font-family: Book Antiqua%2C Palatino%2C serif;"> All of the crocodiles from Zoopiter talked to a sculptor.</p>,1.19
# Columns below this comment are as follows:
# 1. Time results were received.
# 2. MD5 hash of participant's IP address.
# 3. Controller name.
# 4. Item number.
# 5. Element number.
# 6. Type.
# 7. Group.
# 8. Field name.
# 9. Field value.
1556035875,946e5f2e2c915954b7ce6a2fa7bb5928,NewForm,87,0,form,NULL,year,1963
1556035875,946e5f2e2c915954b7ce6a2fa7bb5928,NewForm,87,0,form,NULL,language,English
1556035875,946e5f2e2c915954b7ce6a2fa7bb5928,NewForm,87,0,form,NULL,idturk,A14HW8I4RYHNC4
1556035875,946e5f2e2c915954b7ce6a2fa7bb5928,NewForm,87,0,form,NULL,comment,
1556035875,946e5f2e2c915954b7ce6a2fa7bb5928,NewForm,87,0,form,NULL,sex,male
1556035875,946e5f2e2c915954b7ce6a2fa7bb5928,NewForm,87,0,form,NULL,_REACTION_TIME_,21799
#
# Results on Tuesday April 23 2019 16:12:20 UTC.
# USER AGENT: Mozilla/5.0 (Windows NT 10.0; Win64; x64) AppleWebKit/537.36 (KHTML, like Gecko) Chrome/73.0.3683.103 Safari/537.36
# Design number was non-random = 0
#
# Columns below this comment are as follows:
# 1. Time results were received.
# 2. MD5 hash of participant's IP address.
# 3. Controller name.
# 4. Item number.
# 5. Element number.
# 6. Type.
# 7. Group.
# 8. Field name.
# 9. Field value.
1556035940,1afc569496aa69c263c8795d2e5df519,NewForm,0,0,agreement,NULL,,yes
1556035940,1afc569496aa69c263c8795d2e5df519,NewForm,0,0,agreement,NULL,_REACTION_TIME_,4347
1556035940,1afc569496aa69c263c8795d2e5df519,NewForm,1,0,instructions1,NULL,,yes
1556035940,1afc569496aa69c263c8795d2e5df519,NewForm,1,0,instructions1,NULL,_REACTION_TIME_,16997
# Columns below this comment are as follows:
# 1. Time results were received.
# 2. MD5 hash of participant's IP address.
# 3. Controller name.
# 4. Item number.
# 5. Element number.
# 6. Type.
# 7. Group.
# 8. html.
# 9. value.
1556035940,1afc569496aa69c263c8795d2e5df519,SliderQuestion1,9,0,practice-donkey-true,NULL,<center><p style=" font-size: 1.4em;font-family: Book Antiqua%2C Palatino%2C serif;">Three squares are above at least one heart.</p><p></p><center><img style="border:1px solid #08396d; border-radius: 25px; height:300px;" src="http://mdenic.psycholinguae.fr/donkeys/donkey-correlation-january/practice-truedonkey-0.jpg"></center><p></p></center>,5.00
1556035940,1afc569496aa69c263c8795d2e5df519,SliderQuestion1,10,0,practice-donkey-false,NULL,<center><p style=" font-size: 1.4em;font-family: Book Antiqua%2C Palatino%2C serif;">One triangle is connected to two stars.</p><p></p><center><img style="border:1px solid #08396d; border-radius: 25px; height:300px;" src="http://mdenic.psycholinguae.fr/donkeys/donkey-correlation-january/practice-falsedonkey-0.jpg"></center><p></p></center>,1.24
1556035940,1afc569496aa69c263c8795d2e5df519,SliderQuestion1,11,0,practice-donkey-intermediate,NULL,<center><p style=" font-size: 1.4em;font-family: Book Antiqua%2C Palatino%2C serif;">Many squares are above at least one heart.</p><p></p><center><img style="border:1px solid #08396d; border-radius: 25px; height:300px;" src="http://mdenic.psycholinguae.fr/donkeys/donkey-correlation-january/practice-truedonkey-0.jpg"></center><p></p></center>,3.11
1556035940,1afc569496aa69c263c8795d2e5df519,SliderQuestion1,21,0,AllsquarestarStrong1.jpg,NULL,<center><p style=" font-size: 1.4em;font-family: Book Antiqua%2C Palatino%2C serif;">All of the squares that are above a star are connected to it.</p><p></p><center><img style="border:1px solid #08396d; border-radius: 25px; height:300px;" src="http://mdenic.psycholinguae.fr/donkeys/donkey-correlation-january-every/squarestarStrong1.jpg"></center><p></p></center>,0.23
1556035940,1afc569496aa69c263c8795d2e5df519,SliderQuestion1,29,0,AlltriangleheartStrong5.jpg,NULL,<center><p style=" font-size: 1.4em;font-family: Book Antiqua%2C Palatino%2C serif;">All of the triangles that are above a heart are connected to it.</p><p></p><center><img style="border:1px solid #08396d; border-radius: 25px; height:300px;" src="http://mdenic.psycholinguae.fr/donkeys/donkey-correlation-january-every/triangleheartStrong5.jpg"></center><p></p></center>,0.51
1556035940,1afc569496aa69c263c8795d2e5df519,SliderQuestion1,22,0,AllsquarestarStrong4.jpg,NULL,<center><p style=" font-size: 1.4em;font-family: Book Antiqua%2C Palatino%2C serif;">All of the squares that are above a star are connected to it.</p><p></p><center><img style="border:1px solid #08396d; border-radius: 25px; height:300px;" src="http://mdenic.psycholinguae.fr/donkeys/donkey-correlation-january-every/squarestarStrong4.jpg"></center><p></p></center>,0.65
1556035940,1afc569496aa69c263c8795d2e5df519,SliderQuestion1,20,0,AllsquareheartStrong6.jpg,NULL,<center><p style=" font-size: 1.4em;font-family: Book Antiqua%2C Palatino%2C serif;">All of the squares that are above a heart are connected to it.</p><p></p><center><img style="border:1px solid #08396d; border-radius: 25px; height:300px;" src="http://mdenic.psycholinguae.fr/donkeys/donkey-correlation-january-every/squareheartStrong6.jpg"></center><p></p></center>,0.39
1556035940,1afc569496aa69c263c8795d2e5df519,SliderQuestion1,23,0,AlltriangleheartWeak1.jpg,NULL,<center><p style=" font-size: 1.4em;font-family: Book Antiqua%2C Palatino%2C serif;">All of the triangles that are above a heart are connected to it.</p><p></p><center><img style="border:1px solid #08396d; border-radius: 25px; height:300px;" src="http://mdenic.psycholinguae.fr/donkeys/donkey-correlation-january-every/triangleheartWeak1.jpg"></center><p></p></center>,0.49
1556035940,1afc569496aa69c263c8795d2e5df519,SliderQuestion1,12,0,AlltrianglestarFalse4.jpg,NULL,<center><p style=" font-size: 1.4em;font-family: Book Antiqua%2C Palatino%2C serif;">All of the triangles that are above a star are connected to it.</p><p></p><center><img style="border:1px solid #08396d; border-radius: 25px; height:300px;" src="http://mdenic.psycholinguae.fr/donkeys/donkey-correlation-january-every/trianglestarFalse4.jpg"></center><p></p></center>,0.35
1556035940,1afc569496aa69c263c8795d2e5df519,SliderQuestion1,28,0,AllsquarestarFalse2.jpg,NULL,<center><p style=" font-size: 1.4em;font-family: Book Antiqua%2C Palatino%2C serif;">All of the squares that are above a star are connected to it.</p><p></p><center><img style="border:1px solid #08396d; border-radius: 25px; height:300px;" src="http://mdenic.psycholinguae.fr/donkeys/donkey-correlation-january-every/squarestarFalse2.jpg"></center><p></p></center>,0.57
1556035940,1afc569496aa69c263c8795d2e5df519,SliderQuestion1,24,0,AllsquareheartStrong2.jpg,NULL,<center><p style=" font-size: 1.4em;font-family: Book Antiqua%2C Palatino%2C serif;">All of the squares that are above a heart are connected to it.</p><p></p><center><img style="border:1px solid #08396d; border-radius: 25px; height:300px;" src="http://mdenic.psycholinguae.fr/donkeys/donkey-correlation-january-every/squareheartStrong2.jpg"></center><p></p></center>,0.55
1556035940,1afc569496aa69c263c8795d2e5df519,SliderQuestion1,13,0,AlltrianglestarFalse3.jpg,NULL,<center><p style=" font-size: 1.4em;font-family: Book Antiqua%2C Palatino%2C serif;">All of the triangles that are above a star are connected to it.</p><p></p><center><img style="border:1px solid #08396d; border-radius: 25px; height:300px;" src="http://mdenic.psycholinguae.fr/donkeys/donkey-correlation-january-every/trianglestarFalse3.jpg"></center><p></p></center>,0.36
1556035940,1afc569496aa69c263c8795d2e5df519,SliderQuestion1,17,0,AlltriangleheartFalse5.jpg,NULL,<center><p style=" font-size: 1.4em;font-family: Book Antiqua%2C Palatino%2C serif;">All of the triangles that are above a heart are connected to it.</p><p></p><center><img style="border:1px solid #08396d; border-radius: 25px; height:300px;" src="http://mdenic.psycholinguae.fr/donkeys/donkey-correlation-january-every/triangleheartFalse5.jpg"></center><p></p></center>,0.76
1556035940,1afc569496aa69c263c8795d2e5df519,SliderQuestion1,15,0,AlltrianglestarWeak4.jpg,NULL,<center><p style=" font-size: 1.4em;font-family: Book Antiqua%2C Palatino%2C serif;">All of the triangles that are above a star are connected to it.</p><p></p><center><img style="border:1px solid #08396d; border-radius: 25px; height:300px;" src="http://mdenic.psycholinguae.fr/donkeys/donkey-correlation-january-every/trianglestarWeak4.jpg"></center><p></p></center>,4.05
1556035940,1afc569496aa69c263c8795d2e5df519,SliderQuestion1,18,0,AllsquareheartWeak6.jpg,NULL,<center><p style=" font-size: 1.4em;font-family: Book Antiqua%2C Palatino%2C serif;">All of the squares that are above a heart are connected to it.</p><p></p><center><img style="border:1px solid #08396d; border-radius: 25px; height:300px;" src="http://mdenic.psycholinguae.fr/donkeys/donkey-correlation-january-every/squareheartWeak6.jpg"></center><p></p></center>,3.96
1556035940,1afc569496aa69c263c8795d2e5df519,SliderQuestion1,19,0,AlltriangleheartFalse6.jpg,NULL,<center><p style=" font-size: 1.4em;font-family: Book Antiqua%2C Palatino%2C serif;">All of the triangles that are above a heart are connected to it.</p><p></p><center><img style="border:1px solid #08396d; border-radius: 25px; height:300px;" src="http://mdenic.psycholinguae.fr/donkeys/donkey-correlation-january-every/triangleheartFalse6.jpg"></center><p></p></center>,0.28
1556035940,1afc569496aa69c263c8795d2e5df519,SliderQuestion1,14,0,AllsquareheartWeak2.jpg,NULL,<center><p style=" font-size: 1.4em;font-family: Book Antiqua%2C Palatino%2C serif;">All of the squares that are above a heart are connected to it.</p><p></p><center><img style="border:1px solid #08396d; border-radius: 25px; height:300px;" src="http://mdenic.psycholinguae.fr/donkeys/donkey-correlation-january-every/squareheartWeak2.jpg"></center><p></p></center>,4.04
1556035940,1afc569496aa69c263c8795d2e5df519,SliderQuestion1,25,0,AllsquarestarWeak3.jpg,NULL,<center><p style=" font-size: 1.4em;font-family: Book Antiqua%2C Palatino%2C serif;">All of the squares that are above a star are connected to it.</p><p></p><center><img style="border:1px solid #08396d; border-radius: 25px; height:300px;" src="http://mdenic.psycholinguae.fr/donkeys/donkey-correlation-january-every/squarestarWeak3.jpg"></center><p></p></center>,4.06
1556035940,1afc569496aa69c263c8795d2e5df519,SliderQuestion1,26,0,AllsquarestarFalse1.jpg,NULL,<center><p style=" font-size: 1.4em;font-family: Book Antiqua%2C Palatino%2C serif;">All of the squares that are above a star are connected to it.</p><p></p><center><img style="border:1px solid #08396d; border-radius: 25px; height:300px;" src="http://mdenic.psycholinguae.fr/donkeys/donkey-correlation-january-every/squarestarFalse1.jpg"></center><p></p></center>,0.55
1556035940,1afc569496aa69c263c8795d2e5df519,SliderQuestion1,16,0,AllsquareheartWeak5.jpg,NULL,<center><p style=" font-size: 1.4em;font-family: Book Antiqua%2C Palatino%2C serif;">All of the squares that are above a heart are connected to it.</p><p></p><center><img style="border:1px solid #08396d; border-radius: 25px; height:300px;" src="http://mdenic.psycholinguae.fr/donkeys/donkey-correlation-january-every/squareheartWeak5.jpg"></center><p></p></center>,3.95
1556035940,1afc569496aa69c263c8795d2e5df519,SliderQuestion1,27,0,AlltriangleheartStrong3.jpg,NULL,<center><p style=" font-size: 1.4em;font-family: Book Antiqua%2C Palatino%2C serif;">All of the triangles that are above a heart are connected to it.</p><p></p><center><img style="border:1px solid #08396d; border-radius: 25px; height:300px;" src="http://mdenic.psycholinguae.fr/donkeys/donkey-correlation-january-every/triangleheartStrong3.jpg"></center><p></p></center>,5.00
# Columns below this comment are as follows:
# 1. Time results were received.
# 2. MD5 hash of participant's IP address.
# 3. Controller name.
# 4. Item number.
# 5. Element number.
# 6. Type.
# 7. Group.
# 8. Field name.
# 9. Field value.
1556035940,1afc569496aa69c263c8795d2e5df519,NewForm,2,0,instructions2,NULL,,yes
1556035940,1afc569496aa69c263c8795d2e5df519,NewForm,2,0,instructions2,NULL,_REACTION_TIME_,10053
# Columns below this comment are as follows:
# 1. Time results were received.
# 2. MD5 hash of participant's IP address.
# 3. Controller name.
# 4. Item number.
# 5. Element number.
# 6. Type.
# 7. Group.
# 8. html.
# 9. value.
1556035940,1afc569496aa69c263c8795d2e5df519,SliderQuestion2,30,0,practice-inference-true,NULL,<p style=" font-size: 1.4em;font-family: Book Antiqua%2C Palatino%2C serif;">Bears from Zoopiter always win any song contest they participate in.</p><br><center><p style=" font-size: 1.2em;font-family: Book Antiqua%2C Palatino%2C serif;color: 3FB8AF;"><i>suggests that</i></p></center><br><p style=" font-size: 1.4em;font-family: Book Antiqua%2C Palatino%2C serif;">Bears from Zoopiter are very musical.</p>,4.30
1556035940,1afc569496aa69c263c8795d2e5df519,SliderQuestion2,31,0,practice-inference-false,NULL,<p style=" font-size: 1.4em;font-family: Book Antiqua%2C Palatino%2C serif;">No leopard from Zoopiter visited New York.</p><br><center><p style=" font-size: 1.2em;font-family: Book Antiqua%2C Palatino%2C serif;color: 3FB8AF;"><i>suggests that</i></p></center><br><p style=" font-size: 1.4em;font-family: Book Antiqua%2C Palatino%2C serif;"> All leopards from Zoopiter visited the Statue of Liberty. </p>,0.00
1556035940,1afc569496aa69c263c8795d2e5df519,SliderQuestion2,32,0,practice-inference-intermediate,NULL,<p style=" font-size: 1.4em;font-family: Book Antiqua%2C Palatino%2C serif;">Owls from Zoopiter enjoy reading poetry.</p><br><center><p style=" font-size: 1.2em;font-family: Book Antiqua%2C Palatino%2C serif;color: 3FB8AF;"><i>suggests that</i></p></center><br><p style=" font-size: 1.4em;font-family: Book Antiqua%2C Palatino%2C serif;"> Owls from Zoopiter are the animal species which cares the most about art.</p>,3.13
1556035940,1afc569496aa69c263c8795d2e5df519,SliderQuestion2,62,0,InfRestrictorUEdovebirdAll,NULL,<p style=" font-size: 1.4em;font-family: Book Antiqua%2C Palatino%2C serif;">All of the doves from Zoopiter prepared a Japanese dish.</p><br><center><p style=" font-size: 1.2em;font-family: Book Antiqua%2C Palatino%2C serif;color: 3FB8AF;"><i>suggests that</i></p></center><br><p style=" font-size: 1.4em;font-family: Book Antiqua%2C Palatino%2C serif;"> All of the birds from Zoopiter prepared a Japanese dish.</p>,2.18
1556035940,1afc569496aa69c263c8795d2e5df519,SliderQuestion2,78,0,InfFalsecontrols1talked to a sculptordidn't talk to a sculptorAll,NULL,<p style=" font-size: 1.4em;font-family: Book Antiqua%2C Palatino%2C serif;">All of the crocodiles from Zoopiter talked to a sculptor.</p><br><center><p style=" font-size: 1.2em;font-family: Book Antiqua%2C Palatino%2C serif;color: 3FB8AF;"><i>suggests that</i></p></center><br><p style=" font-size: 1.4em;font-family: Book Antiqua%2C Palatino%2C serif;"> Two crocodiles from Zoopiter didn't talk to a sculptor.</p>,0.00
1556035940,1afc569496aa69c263c8795d2e5df519,SliderQuestion2,38,0,InfSymmetrycobramuseum enthusiastAll,NULL,<p style=" font-size: 1.4em;font-family: Book Antiqua%2C Palatino%2C serif;">All of the cobras from Zoopiter are museum enthusiasts.</p><br><center><p style=" font-size: 1.2em;font-family: Book Antiqua%2C Palatino%2C serif;color: 3FB8AF;"><i>suggests that</i></p></center><br><p style=" font-size: 1.4em;font-family: Book Antiqua%2C Palatino%2C serif;"> All of the museum enthusiasts are cobras from Zoopiter.</p>,1.90
1556035940,1afc569496aa69c263c8795d2e5df519,SliderQuestion2,51,0,InfRestrictorDEspidertarantulaAll,NULL,<p style=" font-size: 1.4em;font-family: Book Antiqua%2C Palatino%2C serif;">All of the spiders from Zoopiter planted a rose.</p><br><center><p style=" font-size: 1.2em;font-family: Book Antiqua%2C Palatino%2C serif;color: 3FB8AF;"><i>suggests that</i></p></center><br><p style=" font-size: 1.4em;font-family: Book Antiqua%2C Palatino%2C serif;"> All of the tarantulas from Zoopiter planted a rose.</p>,5.00
1556035940,1afc569496aa69c263c8795d2e5df519,SliderQuestion2,76,0,InfFalsecontrols1watched a documentarydidn't watch a documentaryAll,NULL,<p style=" font-size: 1.4em;font-family: Book Antiqua%2C Palatino%2C serif;">All of the mosquitos from Zoopiter watched a documentary.</p><br><center><p style=" font-size: 1.2em;font-family: Book Antiqua%2C Palatino%2C serif;color: 3FB8AF;"><i>suggests that</i></p></center><br><p style=" font-size: 1.4em;font-family: Book Antiqua%2C Palatino%2C serif;"> Two mosquitos from Zoopiter didn't watch a documentary.</p>,0.00
1556035940,1afc569496aa69c263c8795d2e5df519,SliderQuestion2,69,0,InfTruecontrols2planted a roseAll,NULL,<p style=" font-size: 1.4em;font-family: Book Antiqua%2C Palatino%2C serif;">All of the mosquitos from Zoopiter planted a rose.</p><br><center><p style=" font-size: 1.2em;font-family: Book Antiqua%2C Palatino%2C serif;color: 3FB8AF;"><i>suggests that</i></p></center><br><p style=" font-size: 1.4em;font-family: Book Antiqua%2C Palatino%2C serif;"> There is a mosquito from Zoopiter that planted a rose.</p>,5.00
1556035940,1afc569496aa69c263c8795d2e5df519,SliderQuestion2,54,0,InfRestrictorDEinsectmosquitoAll,NULL,<p style=" font-size: 1.4em;font-family: Book Antiqua%2C Palatino%2C serif;">All of the insects from Zoopiter talked to a sculptor.</p><br><center><p style=" font-size: 1.2em;font-family: Book Antiqua%2C Palatino%2C serif;color: 3FB8AF;"><i>suggests that</i></p></center><br><p style=" font-size: 1.4em;font-family: Book Antiqua%2C Palatino%2C serif;"> All of the mosquitos from Zoopiter talked to a sculptor.</p>,5.00
1556035940,1afc569496aa69c263c8795d2e5df519,SliderQuestion2,71,0,InfTruecontrols2wrote a novelAll,NULL,<p style=" font-size: 1.4em;font-family: Book Antiqua%2C Palatino%2C serif;">All of the crocodiles from Zoopiter wrote a novel.</p><br><center><p style=" font-size: 1.2em;font-family: Book Antiqua%2C Palatino%2C serif;color: 3FB8AF;"><i>suggests that</i></p></center><br><p style=" font-size: 1.4em;font-family: Book Antiqua%2C Palatino%2C serif;"> There is a crocodile from Zoopiter that wrote a novel.</p>,5.00
1556035940,1afc569496aa69c263c8795d2e5df519,SliderQuestion2,70,0,InfTruecontrols2watched a documentaryAll,NULL,<p style=" font-size: 1.4em;font-family: Book Antiqua%2C Palatino%2C serif;">All of the doves from Zoopiter watched a documentary.</p><br><center><p style=" font-size: 1.2em;font-family: Book Antiqua%2C Palatino%2C serif;color: 3FB8AF;"><i>suggests that</i></p></center><br><p style=" font-size: 1.4em;font-family: Book Antiqua%2C Palatino%2C serif;"> There is a dove from Zoopiter that watched a documentary.</p>,5.00
1556035940,1afc569496aa69c263c8795d2e5df519,SliderQuestion2,82,0,InfFalsecontrols2watched a documentarydidn't watch a documentaryAll,NULL,<p style=" font-size: 1.4em;font-family: Book Antiqua%2C Palatino%2C serif;">All of the poodles from Zoopiter watched a documentary.</p><br><center><p style=" font-size: 1.2em;font-family: Book Antiqua%2C Palatino%2C serif;color: 3FB8AF;"><i>suggests that</i></p></center><br><p style=" font-size: 1.4em;font-family: Book Antiqua%2C Palatino%2C serif;"> Three poodles from Zoopiter didn't watch a documentary.</p>,0.00
1556035940,1afc569496aa69c263c8795d2e5df519,SliderQuestion2,59,0,InfRestrictorUEcobrasnakeAll,NULL,<p style=" font-size: 1.4em;font-family: Book Antiqua%2C Palatino%2C serif;">All of the cobras from Zoopiter wrote a novel.</p><br><center><p style=" font-size: 1.2em;font-family: Book Antiqua%2C Palatino%2C serif;color: 3FB8AF;"><i>suggests that</i></p></center><br><p style=" font-size: 1.4em;font-family: Book Antiqua%2C Palatino%2C serif;"> All of the snakes from Zoopiter wrote a novel.</p>,1.10
1556035940,1afc569496aa69c263c8795d2e5df519,SliderQuestion2,86,0,InfFalsecontrols2prepared a Japanese dishdidn't prepare a Japanese dishAll,NULL,<p style=" font-size: 1.4em;font-family: Book Antiqua%2C Palatino%2C serif;">All of the tarantulas from Zoopiter prepared a Japanese dish.</p><br><center><p style=" font-size: 1.2em;font-family: Book Antiqua%2C Palatino%2C serif;color: 3FB8AF;"><i>suggests that</i></p></center><br><p style=" font-size: 1.4em;font-family: Book Antiqua%2C Palatino%2C serif;"> Three tarantulas from Zoopiter didn't prepare a Japanese dish.</p>,0.00
1556035940,1afc569496aa69c263c8795d2e5df519,SliderQuestion2,48,0,InfScopeUEtalked to a sculptortalked to an artistAll,NULL,<p style=" font-size: 1.4em;font-family: Book Antiqua%2C Palatino%2C serif;">All of the doves from Zoopiter talked to a sculptor.</p><br><center><p style=" font-size: 1.2em;font-family: Book Antiqua%2C Palatino%2C serif;color: 3FB8AF;"><i>suggests that</i></p></center><br><p style=" font-size: 1.4em;font-family: Book Antiqua%2C Palatino%2C serif;"> All of the doves from Zoopiter talked to an artist.</p>,4.02
1556035940,1afc569496aa69c263c8795d2e5df519,SliderQuestion2,36,0,InfSymmetrycrocodiletheater enthusiastAll,NULL,<p style=" font-size: 1.4em;font-family: Book Antiqua%2C Palatino%2C serif;">All of the crocodiles from Zoopiter are theater enthusiasts.</p><br><center><p style=" font-size: 1.2em;font-family: Book Antiqua%2C Palatino%2C serif;color: 3FB8AF;"><i>suggests that</i></p></center><br><p style=" font-size: 1.4em;font-family: Book Antiqua%2C Palatino%2C serif;"> All of the theater enthusiasts are crocodiles from Zoopiter.</p>,1.08
1556035940,1afc569496aa69c263c8795d2e5df519,SliderQuestion2,47,0,InfScopeUEwrote a novelwrote a bookAll,NULL,<p style=" font-size: 1.4em;font-family: Book Antiqua%2C Palatino%2C serif;">All of the mosquitos from Zoopiter wrote a novel.</p><br><center><p style=" font-size: 1.2em;font-family: Book Antiqua%2C Palatino%2C serif;color: 3FB8AF;"><i>suggests that</i></p></center><br><p style=" font-size: 1.4em;font-family: Book Antiqua%2C Palatino%2C serif;"> All of the mosquitos from Zoopiter wrote a book.</p>,5.00
1556035940,1afc569496aa69c263c8795d2e5df519,SliderQuestion2,83,0,InfFalsecontrols2wrote a noveldidn't write a novelAll,NULL,<p style=" font-size: 1.4em;font-family: Book Antiqua%2C Palatino%2C serif;">All of the mosquitos from Zoopiter wrote a novel.</p><br><center><p style=" font-size: 1.2em;font-family: Book Antiqua%2C Palatino%2C serif;color: 3FB8AF;"><i>suggests that</i></p></center><br><p style=" font-size: 1.4em;font-family: Book Antiqua%2C Palatino%2C serif;"> Three mosquitos from Zoopiter didn't write a novel.</p>,0.00
1556035940,1afc569496aa69c263c8795d2e5df519,SliderQuestion2,55,0,InfRestrictorDEbirddoveAll,NULL,<p style=" font-size: 1.4em;font-family: Book Antiqua%2C Palatino%2C serif;">All of the birds from Zoopiter travelled to France.</p><br><center><p style=" font-size: 1.2em;font-family: Book Antiqua%2C Palatino%2C serif;color: 3FB8AF;"><i>suggests that</i></p></center><br><p style=" font-size: 1.4em;font-family: Book Antiqua%2C Palatino%2C serif;"> All of the doves from Zoopiter travelled to France.</p>,5.00
1556035940,1afc569496aa69c263c8795d2e5df519,SliderQuestion2,45,0,InfScopeUEplanted a roseplanted a flowerAll,NULL,<p style=" font-size: 1.4em;font-family: Book Antiqua%2C Palatino%2C serif;">All of the cobras from Zoopiter planted a rose.</p><br><center><p style=" font-size: 1.2em;font-family: Book Antiqua%2C Palatino%2C serif;color: 3FB8AF;"><i>suggests that</i></p></center><br><p style=" font-size: 1.4em;font-family: Book Antiqua%2C Palatino%2C serif;"> All of the cobras from Zoopiter planted a flower.</p>,5.00
1556035940,1afc569496aa69c263c8795d2e5df519,SliderQuestion2,77,0,InfFalsecontrols1wrote a noveldidn't write a novelAll,NULL,<p style=" font-size: 1.4em;font-family: Book Antiqua%2C Palatino%2C serif;">All of the doves from Zoopiter wrote a novel.</p><br><center><p style=" font-size: 1.2em;font-family: Book Antiqua%2C Palatino%2C serif;color: 3FB8AF;"><i>suggests that</i></p></center><br><p style=" font-size: 1.4em;font-family: Book Antiqua%2C Palatino%2C serif;"> Two doves from Zoopiter didn't write a novel.</p>,0.00
1556035940,1afc569496aa69c263c8795d2e5df519,SliderQuestion2,79,0,InfFalsecontrols1travelled to Francedidn't travel to FranceAll,NULL,<p style=" font-size: 1.4em;font-family: Book Antiqua%2C Palatino%2C serif;">All of the tarantulas from Zoopiter travelled to France.</p><br><center><p style=" font-size: 1.2em;font-family: Book Antiqua%2C Palatino%2C serif;color: 3FB8AF;"><i>suggests that</i></p></center><br><p style=" font-size: 1.4em;font-family: Book Antiqua%2C Palatino%2C serif;"> Two tarantulas from Zoopiter didn't travel to France.</p>,0.00
1556035940,1afc569496aa69c263c8795d2e5df519,SliderQuestion2,80,0,InfFalsecontrols1prepared a Japanese dishdidn't prepare a Japanese dishAll,NULL,<p style=" font-size: 1.4em;font-family: Book Antiqua%2C Palatino%2C serif;">All of the cobras from Zoopiter prepared a Japanese dish.</p><br><center><p style=" font-size: 1.2em;font-family: Book Antiqua%2C Palatino%2C serif;color: 3FB8AF;"><i>suggests that</i></p></center><br><p style=" font-size: 1.4em;font-family: Book Antiqua%2C Palatino%2C serif;"> Two cobras from Zoopiter didn't prepare a Japanese dish.</p>,0.00
1556035940,1afc569496aa69c263c8795d2e5df519,SliderQuestion2,40,0,InfScopeDEwatched a filmwatched a documentaryAll,NULL,<p style=" font-size: 1.4em;font-family: Book Antiqua%2C Palatino%2C serif;">All of the mosquitos from Zoopiter watched a film.</p><br><center><p style=" font-size: 1.2em;font-family: Book Antiqua%2C Palatino%2C serif;color: 3FB8AF;"><i>suggests that</i></p></center><br><p style=" font-size: 1.4em;font-family: Book Antiqua%2C Palatino%2C serif;"> All of the mosquitos from Zoopiter watched a documentary.</p>,0.63
1556035940,1afc569496aa69c263c8795d2e5df519,SliderQuestion2,85,0,InfFalsecontrols2travelled to Francedidn't travel to FranceAll,NULL,<p style=" font-size: 1.4em;font-family: Book Antiqua%2C Palatino%2C serif;">All of the crocodiles from Zoopiter travelled to France.</p><br><center><p style=" font-size: 1.2em;font-family: Book Antiqua%2C Palatino%2C serif;color: 3FB8AF;"><i>suggests that</i></p></center><br><p style=" font-size: 1.4em;font-family: Book Antiqua%2C Palatino%2C serif;"> Three crocodiles from Zoopiter didn't travel to France.</p>,0.00
1556035940,1afc569496aa69c263c8795d2e5df519,SliderQuestion2,68,0,InfTruecontrols1prepared a Japanese dishdidn't prepare a Japanese dishAll,NULL,<p style=" font-size: 1.4em;font-family: Book Antiqua%2C Palatino%2C serif;">All of the mosquitos from Zoopiter prepared a Japanese dish.</p><br><center><p style=" font-size: 1.2em;font-family: Book Antiqua%2C Palatino%2C serif;color: 3FB8AF;"><i>suggests that</i></p></center><br><p style=" font-size: 1.4em;font-family: Book Antiqua%2C Palatino%2C serif;"> There is no mosquito from Zoopiter that didn't prepare a Japanese dish.</p>,5.00
1556035940,1afc569496aa69c263c8795d2e5df519,SliderQuestion2,52,0,InfRestrictorDEsnakecobraAll,NULL,<p style=" font-size: 1.4em;font-family: Book Antiqua%2C Palatino%2C serif;">All of the snakes from Zoopiter watched a documentary.</p><br><center><p style=" font-size: 1.2em;font-family: Book Antiqua%2C Palatino%2C serif;color: 3FB8AF;"><i>suggests that</i></p></center><br><p style=" font-size: 1.4em;font-family: Book Antiqua%2C Palatino%2C serif;"> All of the cobras from Zoopiter watched a documentary.</p>,5.00
1556035940,1afc569496aa69c263c8795d2e5df519,SliderQuestion2,84,0,InfFalsecontrols2talked to a sculptordidn't talk to a sculptorAll,NULL,<p style=" font-size: 1.4em;font-family: Book Antiqua%2C Palatino%2C serif;">All of the doves from Zoopiter talked to a sculptor.</p><br><center><p style=" font-size: 1.2em;font-family: Book Antiqua%2C Palatino%2C serif;color: 3FB8AF;"><i>suggests that</i></p></center><br><p style=" font-size: 1.4em;font-family: Book Antiqua%2C Palatino%2C serif;"> Three doves from Zoopiter didn't talk to a sculptor.</p>,0.00
1556035940,1afc569496aa69c263c8795d2e5df519,SliderQuestion2,74,0,InfTruecontrols2prepared a Japanese dishAll,NULL,<p style=" font-size: 1.4em;font-family: Book Antiqua%2C Palatino%2C serif;">All of the poodles from Zoopiter prepared a Japanese dish.</p><br><center><p style=" font-size: 1.2em;font-family: Book Antiqua%2C Palatino%2C serif;color: 3FB8AF;"><i>suggests that</i></p></center><br><p style=" font-size: 1.4em;font-family: Book Antiqua%2C Palatino%2C serif;"> There is a poodle from Zoopiter that prepared a Japanese dish.</p>,5.00
1556035940,1afc569496aa69c263c8795d2e5df519,SliderQuestion2,33,0,InfSymmetrymosquitocinema enthusiastAll,NULL,<p style=" font-size: 1.4em;font-family: Book Antiqua%2C Palatino%2C serif;">All of the mosquitos from Zoopiter are cinema enthusiasts.</p><br><center><p style=" font-size: 1.2em;font-family: Book Antiqua%2C Palatino%2C serif;color: 3FB8AF;"><i>suggests that</i></p></center><br><p style=" font-size: 1.4em;font-family: Book Antiqua%2C Palatino%2C serif;"> All of the cinema enthusiasts are mosquitos from Zoopiter.</p>,1.04
1556035940,1afc569496aa69c263c8795d2e5df519,SliderQuestion2,43,0,InfScopeDEtravelled to Europetravelled to FranceAll,NULL,<p style=" font-size: 1.4em;font-family: Book Antiqua%2C Palatino%2C serif;">All of the tarantulas from Zoopiter travelled to Europe.</p><br><center><p style=" font-size: 1.2em;font-family: Book Antiqua%2C Palatino%2C serif;color: 3FB8AF;"><i>suggests that</i></p></center><br><p style=" font-size: 1.4em;font-family: Book Antiqua%2C Palatino%2C serif;"> All of the tarantulas from Zoopiter travelled to France.</p>,1.08
1556035940,1afc569496aa69c263c8795d2e5df519,SliderQuestion2,50,0,InfScopeUEprepared a Japanese dishprepared an Asian dishAll,NULL,<p style=" font-size: 1.4em;font-family: Book Antiqua%2C Palatino%2C serif;">All of the tarantulas from Zoopiter prepared a Japanese dish.</p><br><center><p style=" font-size: 1.2em;font-family: Book Antiqua%2C Palatino%2C serif;color: 3FB8AF;"><i>suggests that</i></p></center><br><p style=" font-size: 1.4em;font-family: Book Antiqua%2C Palatino%2C serif;"> All of the tarantulas from Zoopiter prepared an Asian dish.</p>,0.99
1556035940,1afc569496aa69c263c8795d2e5df519,SliderQuestion2,60,0,InfRestrictorUEpoodledogAll,NULL,<p style=" font-size: 1.4em;font-family: Book Antiqua%2C Palatino%2C serif;">All of the poodles from Zoopiter talked to a sculptor.</p><br><center><p style=" font-size: 1.2em;font-family: Book Antiqua%2C Palatino%2C serif;color: 3FB8AF;"><i>suggests that</i></p></center><br><p style=" font-size: 1.4em;font-family: Book Antiqua%2C Palatino%2C serif;"> All of the dogs from Zoopiter talked to a sculptor.</p>,1.18
1556035940,1afc569496aa69c263c8795d2e5df519,SliderQuestion2,66,0,InfTruecontrols1talked to a sculptordidn't talk to a sculptorAll,NULL,<p style=" font-size: 1.4em;font-family: Book Antiqua%2C Palatino%2C serif;">All of the cobras from Zoopiter talked to a sculptor.</p><br><center><p style=" font-size: 1.2em;font-family: Book Antiqua%2C Palatino%2C serif;color: 3FB8AF;"><i>suggests that</i></p></center><br><p style=" font-size: 1.4em;font-family: Book Antiqua%2C Palatino%2C serif;"> There is no cobra from Zoopiter that didn't talk to a sculptor.</p>,5.00
1556035940,1afc569496aa69c263c8795d2e5df519,SliderQuestion2,61,0,InfRestrictorUEmosquitoinsectAll,NULL,<p style=" font-size: 1.4em;font-family: Book Antiqua%2C Palatino%2C serif;">All of the mosquitos from Zoopiter travelled to France.</p><br><center><p style=" font-size: 1.2em;font-family: Book Antiqua%2C Palatino%2C serif;color: 3FB8AF;"><i>suggests that</i></p></center><br><p style=" font-size: 1.4em;font-family: Book Antiqua%2C Palatino%2C serif;"> All of the insects from Zoopiter travelled to France.</p>,1.04
1556035940,1afc569496aa69c263c8795d2e5df519,SliderQuestion2,53,0,InfRestrictorDEdogpoodleAll,NULL,<p style=" font-size: 1.4em;font-family: Book Antiqua%2C Palatino%2C serif;">All of the dogs from Zoopiter wrote a novel.</p><br><center><p style=" font-size: 1.2em;font-family: Book Antiqua%2C Palatino%2C serif;color: 3FB8AF;"><i>suggests that</i></p></center><br><p style=" font-size: 1.4em;font-family: Book Antiqua%2C Palatino%2C serif;"> All of the poodles from Zoopiter wrote a novel.</p>,5.00
1556035940,1afc569496aa69c263c8795d2e5df519,SliderQuestion2,56,0,InfRestrictorDEreptilecrocodileAll,NULL,<p style=" font-size: 1.4em;font-family: Book Antiqua%2C Palatino%2C serif;">All of the reptiles from Zoopiter prepared a Japanese dish.</p><br><center><p style=" font-size: 1.2em;font-family: Book Antiqua%2C Palatino%2C serif;color: 3FB8AF;"><i>suggests that</i></p></center><br><p style=" font-size: 1.4em;font-family: Book Antiqua%2C Palatino%2C serif;"> All of the crocodiles from Zoopiter prepared a Japanese dish.</p>,5.00
1556035940,1afc569496aa69c263c8795d2e5df519,SliderQuestion2,64,0,InfTruecontrols1watched a documentarydidn't watch a documentaryAll,NULL,<p style=" font-size: 1.4em;font-family: Book Antiqua%2C Palatino%2C serif;">All of the crocodiles from Zoopiter watched a documentary.</p><br><center><p style=" font-size: 1.2em;font-family: Book Antiqua%2C Palatino%2C serif;color: 3FB8AF;"><i>suggests that</i></p></center><br><p style=" font-size: 1.4em;font-family: Book Antiqua%2C Palatino%2C serif;"> There is no crocodile from Zoopiter that didn't watch a documentary.</p>,5.00
1556035940,1afc569496aa69c263c8795d2e5df519,SliderQuestion2,72,0,InfTruecontrols2talked to a sculptorAll,NULL,<p style=" font-size: 1.4em;font-family: Book Antiqua%2C Palatino%2C serif;">All of the tarantulas from Zoopiter talked to a sculptor.</p><br><center><p style=" font-size: 1.2em;font-family: Book Antiqua%2C Palatino%2C serif;color: 3FB8AF;"><i>suggests that</i></p></center><br><p style=" font-size: 1.4em;font-family: Book Antiqua%2C Palatino%2C serif;"> There is a tarantula from Zoopiter that talked to a sculptor.</p>,5.00
1556035940,1afc569496aa69c263c8795d2e5df519,SliderQuestion2,57,0,InfRestrictorUEcrocodilereptileAll,NULL,<p style=" font-size: 1.4em;font-family: Book Antiqua%2C Palatino%2C serif;">All of the crocodiles from Zoopiter planted a rose.</p><br><center><p style=" font-size: 1.2em;font-family: Book Antiqua%2C Palatino%2C serif;color: 3FB8AF;"><i>suggests that</i></p></center><br><p style=" font-size: 1.4em;font-family: Book Antiqua%2C Palatino%2C serif;"> All of the reptiles from Zoopiter planted a rose.</p>,1.10
1556035940,1afc569496aa69c263c8795d2e5df519,SliderQuestion2,35,0,InfSymmetrypoodlemusic enthusiastAll,NULL,<p style=" font-size: 1.4em;font-family: Book Antiqua%2C Palatino%2C serif;">All of the poodles from Zoopiter are music enthusiasts.</p><br><center><p style=" font-size: 1.2em;font-family: Book Antiqua%2C Palatino%2C serif;color: 3FB8AF;"><i>suggests that</i></p></center><br><p style=" font-size: 1.4em;font-family: Book Antiqua%2C Palatino%2C serif;"> All of the music enthusiasts are poodles from Zoopiter.</p>,1.10
1556035940,1afc569496aa69c263c8795d2e5df519,SliderQuestion2,49,0,InfScopeUEtravelled to Francetravelled to EuropeAll,NULL,<p style=" font-size: 1.4em;font-family: Book Antiqua%2C Palatino%2C serif;">All of the crocodiles from Zoopiter travelled to France.</p><br><center><p style=" font-size: 1.2em;font-family: Book Antiqua%2C Palatino%2C serif;color: 3FB8AF;"><i>suggests that</i></p></center><br><p style=" font-size: 1.4em;font-family: Book Antiqua%2C Palatino%2C serif;"> All of the crocodiles from Zoopiter travelled to Europe.</p>,5.00
1556035940,1afc569496aa69c263c8795d2e5df519,SliderQuestion2,42,0,InfScopeDEtalked to an artisttalked to a sculptorAll,NULL,<p style=" font-size: 1.4em;font-family: Book Antiqua%2C Palatino%2C serif;">All of the crocodiles from Zoopiter talked to an artist.</p><br><center><p style=" font-size: 1.2em;font-family: Book Antiqua%2C Palatino%2C serif;color: 3FB8AF;"><i>suggests that</i></p></center><br><p style=" font-size: 1.4em;font-family: Book Antiqua%2C Palatino%2C serif;"> All of the crocodiles from Zoopiter talked to a sculptor.</p>,1.38
1556035940,1afc569496aa69c263c8795d2e5df519,SliderQuestion2,37,0,InfSymmetrytarantulatravel enthusiastAll,NULL,<p style=" font-size: 1.4em;font-family: Book Antiqua%2C Palatino%2C serif;">All of the tarantulas from Zoopiter are travel enthusiasts.</p><br><center><p style=" font-size: 1.2em;font-family: Book Antiqua%2C Palatino%2C serif;color: 3FB8AF;"><i>suggests that</i></p></center><br><p style=" font-size: 1.4em;font-family: Book Antiqua%2C Palatino%2C serif;"> All of the travel enthusiasts are tarantulas from Zoopiter.</p>,1.17
1556035940,1afc569496aa69c263c8795d2e5df519,SliderQuestion2,41,0,InfScopeDEwrote a bookwrote a novelAll,NULL,<p style=" font-size: 1.4em;font-family: Book Antiqua%2C Palatino%2C serif;">All of the doves from Zoopiter wrote a book.</p><br><center><p style=" font-size: 1.2em;font-family: Book Antiqua%2C Palatino%2C serif;color: 3FB8AF;"><i>suggests that</i></p></center><br><p style=" font-size: 1.4em;font-family: Book Antiqua%2C Palatino%2C serif;"> All of the doves from Zoopiter wrote a novel.</p>,5.00
1556035940,1afc569496aa69c263c8795d2e5df519,SliderQuestion2,73,0,InfTruecontrols2travelled to FranceAll,NULL,<p style=" font-size: 1.4em;font-family: Book Antiqua%2C Palatino%2C serif;">All of the cobras from Zoopiter travelled to France.</p><br><center><p style=" font-size: 1.2em;font-family: Book Antiqua%2C Palatino%2C serif;color: 3FB8AF;"><i>suggests that</i></p></center><br><p style=" font-size: 1.4em;font-family: Book Antiqua%2C Palatino%2C serif;"> There is a cobra from Zoopiter that travelled to France.</p>,5.00
1556035940,1afc569496aa69c263c8795d2e5df519,SliderQuestion2,65,0,InfTruecontrols1wrote a noveldidn't write a novelAll,NULL,<p style=" font-size: 1.4em;font-family: Book Antiqua%2C Palatino%2C serif;">All of the tarantulas from Zoopiter wrote a novel.</p><br><center><p style=" font-size: 1.2em;font-family: Book Antiqua%2C Palatino%2C serif;color: 3FB8AF;"><i>suggests that</i></p></center><br><p style=" font-size: 1.4em;font-family: Book Antiqua%2C Palatino%2C serif;"> There is no tarantula from Zoopiter that didn't write a novel.</p>,5.00
1556035940,1afc569496aa69c263c8795d2e5df519,SliderQuestion2,46,0,InfScopeUEwatched a documentarywatched a filmAll,NULL,<p style=" font-size: 1.4em;font-family: Book Antiqua%2C Palatino%2C serif;">All of the poodles from Zoopiter watched a documentary.</p><br><center><p style=" font-size: 1.2em;font-family: Book Antiqua%2C Palatino%2C serif;color: 3FB8AF;"><i>suggests that</i></p></center><br><p style=" font-size: 1.4em;font-family: Book Antiqua%2C Palatino%2C serif;"> All of the poodles from Zoopiter watched a film.</p>,5.00
1556035940,1afc569496aa69c263c8795d2e5df519,SliderQuestion2,81,0,InfFalsecontrols2planted a rosedidn't plant a roseAll,NULL,<p style=" font-size: 1.4em;font-family: Book Antiqua%2C Palatino%2C serif;">All of the cobras from Zoopiter planted a rose.</p><br><center><p style=" font-size: 1.2em;font-family: Book Antiqua%2C Palatino%2C serif;color: 3FB8AF;"><i>suggests that</i></p></center><br><p style=" font-size: 1.4em;font-family: Book Antiqua%2C Palatino%2C serif;"> Three cobras from Zoopiter didn't plant a rose.</p>,0.00
1556035940,1afc569496aa69c263c8795d2e5df519,SliderQuestion2,39,0,InfScopeDEplanted a flowerplanted a roseAll,NULL,<p style=" font-size: 1.4em;font-family: Book Antiqua%2C Palatino%2C serif;">All of the poodles from Zoopiter planted a flower.</p><br><center><p style=" font-size: 1.2em;font-family: Book Antiqua%2C Palatino%2C serif;color: 3FB8AF;"><i>suggests that</i></p></center><br><p style=" font-size: 1.4em;font-family: Book Antiqua%2C Palatino%2C serif;"> All of the poodles from Zoopiter planted a rose.</p>,1.29
1556035940,1afc569496aa69c263c8795d2e5df519,SliderQuestion2,44,0,InfScopeDEprepared an Asian dishprepared a Japanese dishAll,NULL,<p style=" font-size: 1.4em;font-family: Book Antiqua%2C Palatino%2C serif;">All of the cobras from Zoopiter prepared an Asian dish.</p><br><center><p style=" font-size: 1.2em;font-family: Book Antiqua%2C Palatino%2C serif;color: 3FB8AF;"><i>suggests that</i></p></center><br><p style=" font-size: 1.4em;font-family: Book Antiqua%2C Palatino%2C serif;"> All of the cobras from Zoopiter prepared a Japanese dish.</p>,1.08
1556035940,1afc569496aa69c263c8795d2e5df519,SliderQuestion2,58,0,InfRestrictorUEtarantulaspiderAll,NULL,<p style=" font-size: 1.4em;font-family: Book Antiqua%2C Palatino%2C serif;">All of the tarantulas from Zoopiter watched a documentary.</p><br><center><p style=" font-size: 1.2em;font-family: Book Antiqua%2C Palatino%2C serif;color: 3FB8AF;"><i>suggests that</i></p></center><br><p style=" font-size: 1.4em;font-family: Book Antiqua%2C Palatino%2C serif;"> All of the spiders from Zoopiter watched a documentary.</p>,1.28
1556035940,1afc569496aa69c263c8795d2e5df519,SliderQuestion2,67,0,InfTruecontrols1travelled to Francedidn't travel to FranceAll,NULL,<p style=" font-size: 1.4em;font-family: Book Antiqua%2C Palatino%2C serif;">All of the poodles from Zoopiter travelled to France.</p><br><center><p style=" font-size: 1.2em;font-family: Book Antiqua%2C Palatino%2C serif;color: 3FB8AF;"><i>suggests that</i></p></center><br><p style=" font-size: 1.4em;font-family: Book Antiqua%2C Palatino%2C serif;"> There is no poodle from Zoopiter that didn't travel to France.</p>,5.00
1556035940,1afc569496aa69c263c8795d2e5df519,SliderQuestion2,63,0,InfTruecontrols1planted a rosedidn't plant a roseAll,NULL,<p style=" font-size: 1.4em;font-family: Book Antiqua%2C Palatino%2C serif;">All of the doves from Zoopiter planted a rose.</p><br><center><p style=" font-size: 1.2em;font-family: Book Antiqua%2C Palatino%2C serif;color: 3FB8AF;"><i>suggests that</i></p></center><br><p style=" font-size: 1.4em;font-family: Book Antiqua%2C Palatino%2C serif;"> There is no dove from Zoopiter that didn't plant a rose.</p>,5.00
1556035940,1afc569496aa69c263c8795d2e5df519,SliderQuestion2,34,0,InfSymmetrydoveliterature enthusiastAll,NULL,<p style=" font-size: 1.4em;font-family: Book Antiqua%2C Palatino%2C serif;">All of the doves from Zoopiter are literature enthusiasts.</p><br><center><p style=" font-size: 1.2em;font-family: Book Antiqua%2C Palatino%2C serif;color: 3FB8AF;"><i>suggests that</i></p></center><br><p style=" font-size: 1.4em;font-family: Book Antiqua%2C Palatino%2C serif;"> All of the literature enthusiasts are doves from Zoopiter.</p>,1.04
1556035940,1afc569496aa69c263c8795d2e5df519,SliderQuestion2,75,0,InfFalsecontrols1planted a rosedidn't plant a roseAll,NULL,<p style=" font-size: 1.4em;font-family: Book Antiqua%2C Palatino%2C serif;">All of the poodles from Zoopiter planted a rose.</p><br><center><p style=" font-size: 1.2em;font-family: Book Antiqua%2C Palatino%2C serif;color: 3FB8AF;"><i>suggests that</i></p></center><br><p style=" font-size: 1.4em;font-family: Book Antiqua%2C Palatino%2C serif;"> Two poodles from Zoopiter didn't plant a rose.</p>,0.00
# Columns below this comment are as follows:
# 1. Time results were received.
# 2. MD5 hash of participant's IP address.
# 3. Controller name.
# 4. Item number.
# 5. Element number.
# 6. Type.
# 7. Group.
# 8. Field name.
# 9. Field value.
1556035940,1afc569496aa69c263c8795d2e5df519,NewForm,87,0,form,NULL,year,1983
1556035940,1afc569496aa69c263c8795d2e5df519,NewForm,87,0,form,NULL,language,English
1556035940,1afc569496aa69c263c8795d2e5df519,NewForm,87,0,form,NULL,idturk,AJW3PL5UDH4BP
1556035940,1afc569496aa69c263c8795d2e5df519,NewForm,87,0,form,NULL,comment,
1556035940,1afc569496aa69c263c8795d2e5df519,NewForm,87,0,form,NULL,sex,male
1556035940,1afc569496aa69c263c8795d2e5df519,NewForm,87,0,form,NULL,_REACTION_TIME_,15346
#
# Results on Tuesday April 23 2019 16:12:30 UTC.
# USER AGENT: Mozilla/5.0 (Macintosh; Intel Mac OS X 10.14; rv:66.0) Gecko/20100101 Firefox/66.0
# Design number was non-random = 0
#
# Columns below this comment are as follows:
# 1. Time results were received.
# 2. MD5 hash of participant's IP address.
# 3. Controller name.
# 4. Item number.
# 5. Element number.
# 6. Type.
# 7. Group.
# 8. Field name.
# 9. Field value.
1556035951,b99047b7fe89a3e33314daa4e7fa5ccf,NewForm,0,0,agreement,NULL,,yes
1556035951,b99047b7fe89a3e33314daa4e7fa5ccf,NewForm,0,0,agreement,NULL,_REACTION_TIME_,2508
1556035951,b99047b7fe89a3e33314daa4e7fa5ccf,NewForm,1,0,instructions1,NULL,,yes
1556035951,b99047b7fe89a3e33314daa4e7fa5ccf,NewForm,1,0,instructions1,NULL,_REACTION_TIME_,4487
# Columns below this comment are as follows:
# 1. Time results were received.
# 2. MD5 hash of participant's IP address.
# 3. Controller name.
# 4. Item number.
# 5. Element number.
# 6. Type.
# 7. Group.
# 8. html.
# 9. value.
1556035951,b99047b7fe89a3e33314daa4e7fa5ccf,SliderQuestion1,9,0,practice-donkey-true,NULL,<center><p style=" font-size: 1.4em;font-family: Book Antiqua%2C Palatino%2C serif;">Three squares are above at least one heart.</p><p></p><center><img style="border:1px solid #08396d; border-radius: 25px; height:300px;" src="http://mdenic.psycholinguae.fr/donkeys/donkey-correlation-january/practice-truedonkey-0.jpg"></center><p></p></center>,4.36
1556035951,b99047b7fe89a3e33314daa4e7fa5ccf,SliderQuestion1,10,0,practice-donkey-false,NULL,<center><p style=" font-size: 1.4em;font-family: Book Antiqua%2C Palatino%2C serif;">One triangle is connected to two stars.</p><p></p><center><img style="border:1px solid #08396d; border-radius: 25px; height:300px;" src="http://mdenic.psycholinguae.fr/donkeys/donkey-correlation-january/practice-falsedonkey-0.jpg"></center><p></p></center>,0.78
1556035951,b99047b7fe89a3e33314daa4e7fa5ccf,SliderQuestion1,11,0,practice-donkey-intermediate,NULL,<center><p style=" font-size: 1.4em;font-family: Book Antiqua%2C Palatino%2C serif;">Many squares are above at least one heart.</p><p></p><center><img style="border:1px solid #08396d; border-radius: 25px; height:300px;" src="http://mdenic.psycholinguae.fr/donkeys/donkey-correlation-january/practice-truedonkey-0.jpg"></center><p></p></center>,4.06
1556035951,b99047b7fe89a3e33314daa4e7fa5ccf,SliderQuestion1,20,0,AllsquareheartStrong6.jpg,NULL,<center><p style=" font-size: 1.4em;font-family: Book Antiqua%2C Palatino%2C serif;">All of the squares that are above a heart are connected to it.</p><p></p><center><img style="border:1px solid #08396d; border-radius: 25px; height:300px;" src="http://mdenic.psycholinguae.fr/donkeys/donkey-correlation-january-every/squareheartStrong6.jpg"></center><p></p></center>,4.33
1556035951,b99047b7fe89a3e33314daa4e7fa5ccf,SliderQuestion1,13,0,AlltrianglestarFalse3.jpg,NULL,<center><p style=" font-size: 1.4em;font-family: Book Antiqua%2C Palatino%2C serif;">All of the triangles that are above a star are connected to it.</p><p></p><center><img style="border:1px solid #08396d; border-radius: 25px; height:300px;" src="http://mdenic.psycholinguae.fr/donkeys/donkey-correlation-january-every/trianglestarFalse3.jpg"></center><p></p></center>,0.50
1556035951,b99047b7fe89a3e33314daa4e7fa5ccf,SliderQuestion1,15,0,AlltrianglestarWeak4.jpg,NULL,<center><p style=" font-size: 1.4em;font-family: Book Antiqua%2C Palatino%2C serif;">All of the triangles that are above a star are connected to it.</p><p></p><center><img style="border:1px solid #08396d; border-radius: 25px; height:300px;" src="http://mdenic.psycholinguae.fr/donkeys/donkey-correlation-january-every/trianglestarWeak4.jpg"></center><p></p></center>,0.74
1556035951,b99047b7fe89a3e33314daa4e7fa5ccf,SliderQuestion1,12,0,AlltrianglestarFalse4.jpg,NULL,<center><p style=" font-size: 1.4em;font-family: Book Antiqua%2C Palatino%2C serif;">All of the triangles that are above a star are connected to it.</p><p></p><center><img style="border:1px solid #08396d; border-radius: 25px; height:300px;" src="http://mdenic.psycholinguae.fr/donkeys/donkey-correlation-january-every/trianglestarFalse4.jpg"></center><p></p></center>,0.59
1556035951,b99047b7fe89a3e33314daa4e7fa5ccf,SliderQuestion1,29,0,AlltriangleheartStrong5.jpg,NULL,<center><p style=" font-size: 1.4em;font-family: Book Antiqua%2C Palatino%2C serif;">All of the triangles that are above a heart are connected to it.</p><p></p><center><img style="border:1px solid #08396d; border-radius: 25px; height:300px;" src="http://mdenic.psycholinguae.fr/donkeys/donkey-correlation-january-every/triangleheartStrong5.jpg"></center><p></p></center>,4.25
1556035951,b99047b7fe89a3e33314daa4e7fa5ccf,SliderQuestion1,23,0,AlltriangleheartWeak1.jpg,NULL,<center><p style=" font-size: 1.4em;font-family: Book Antiqua%2C Palatino%2C serif;">All of the triangles that are above a heart are connected to it.</p><p></p><center><img style="border:1px solid #08396d; border-radius: 25px; height:300px;" src="http://mdenic.psycholinguae.fr/donkeys/donkey-correlation-january-every/triangleheartWeak1.jpg"></center><p></p></center>,0.89
1556035951,b99047b7fe89a3e33314daa4e7fa5ccf,SliderQuestion1,26,0,AllsquarestarFalse1.jpg,NULL,<center><p style=" font-size: 1.4em;font-family: Book Antiqua%2C Palatino%2C serif;">All of the squares that are above a star are connected to it.</p><p></p><center><img style="border:1px solid #08396d; border-radius: 25px; height:300px;" src="http://mdenic.psycholinguae.fr/donkeys/donkey-correlation-january-every/squarestarFalse1.jpg"></center><p></p></center>,2.50
1556035951,b99047b7fe89a3e33314daa4e7fa5ccf,SliderQuestion1,17,0,AlltriangleheartFalse5.jpg,NULL,<center><p style=" font-size: 1.4em;font-family: Book Antiqua%2C Palatino%2C serif;">All of the triangles that are above a heart are connected to it.</p><p></p><center><img style="border:1px solid #08396d; border-radius: 25px; height:300px;" src="http://mdenic.psycholinguae.fr/donkeys/donkey-correlation-january-every/triangleheartFalse5.jpg"></center><p></p></center>,0.67
1556035951,b99047b7fe89a3e33314daa4e7fa5ccf,SliderQuestion1,24,0,AllsquareheartStrong2.jpg,NULL,<center><p style=" font-size: 1.4em;font-family: Book Antiqua%2C Palatino%2C serif;">All of the squares that are above a heart are connected to it.</p><p></p><center><img style="border:1px solid #08396d; border-radius: 25px; height:300px;" src="http://mdenic.psycholinguae.fr/donkeys/donkey-correlation-january-every/squareheartStrong2.jpg"></center><p></p></center>,4.19
1556035951,b99047b7fe89a3e33314daa4e7fa5ccf,SliderQuestion1,27,0,AlltriangleheartStrong3.jpg,NULL,<center><p style=" font-size: 1.4em;font-family: Book Antiqua%2C Palatino%2C serif;">All of the triangles that are above a heart are connected to it.</p><p></p><center><img style="border:1px solid #08396d; border-radius: 25px; height:300px;" src="http://mdenic.psycholinguae.fr/donkeys/donkey-correlation-january-every/triangleheartStrong3.jpg"></center><p></p></center>,4.22
1556035951,b99047b7fe89a3e33314daa4e7fa5ccf,SliderQuestion1,25,0,AllsquarestarWeak3.jpg,NULL,<center><p style=" font-size: 1.4em;font-family: Book Antiqua%2C Palatino%2C serif;">All of the squares that are above a star are connected to it.</p><p></p><center><img style="border:1px solid #08396d; border-radius: 25px; height:300px;" src="http://mdenic.psycholinguae.fr/donkeys/donkey-correlation-january-every/squarestarWeak3.jpg"></center><p></p></center>,0.84
1556035951,b99047b7fe89a3e33314daa4e7fa5ccf,SliderQuestion1,22,0,AllsquarestarStrong4.jpg,NULL,<center><p style=" font-size: 1.4em;font-family: Book Antiqua%2C Palatino%2C serif;">All of the squares that are above a star are connected to it.</p><p></p><center><img style="border:1px solid #08396d; border-radius: 25px; height:300px;" src="http://mdenic.psycholinguae.fr/donkeys/donkey-correlation-january-every/squarestarStrong4.jpg"></center><p></p></center>,4.29
1556035951,b99047b7fe89a3e33314daa4e7fa5ccf,SliderQuestion1,16,0,AllsquareheartWeak5.jpg,NULL,<center><p style=" font-size: 1.4em;font-family: Book Antiqua%2C Palatino%2C serif;">All of the squares that are above a heart are connected to it.</p><p></p><center><img style="border:1px solid #08396d; border-radius: 25px; height:300px;" src="http://mdenic.psycholinguae.fr/donkeys/donkey-correlation-january-every/squareheartWeak5.jpg"></center><p></p></center>,0.85
1556035951,b99047b7fe89a3e33314daa4e7fa5ccf,SliderQuestion1,21,0,AllsquarestarStrong1.jpg,NULL,<center><p style=" font-size: 1.4em;font-family: Book Antiqua%2C Palatino%2C serif;">All of the squares that are above a star are connected to it.</p><p></p><center><img style="border:1px solid #08396d; border-radius: 25px; height:300px;" src="http://mdenic.psycholinguae.fr/donkeys/donkey-correlation-january-every/squarestarStrong1.jpg"></center><p></p></center>,4.24
1556035951,b99047b7fe89a3e33314daa4e7fa5ccf,SliderQuestion1,28,0,AllsquarestarFalse2.jpg,NULL,<center><p style=" font-size: 1.4em;font-family: Book Antiqua%2C Palatino%2C serif;">All of the squares that are above a star are connected to it.</p><p></p><center><img style="border:1px solid #08396d; border-radius: 25px; height:300px;" src="http://mdenic.psycholinguae.fr/donkeys/donkey-correlation-january-every/squarestarFalse2.jpg"></center><p></p></center>,0.78
1556035951,b99047b7fe89a3e33314daa4e7fa5ccf,SliderQuestion1,14,0,AllsquareheartWeak2.jpg,NULL,<center><p style=" font-size: 1.4em;font-family: Book Antiqua%2C Palatino%2C serif;">All of the squares that are above a heart are connected to it.</p><p></p><center><img style="border:1px solid #08396d; border-radius: 25px; height:300px;" src="http://mdenic.psycholinguae.fr/donkeys/donkey-correlation-january-every/squareheartWeak2.jpg"></center><p></p></center>,0.75
1556035951,b99047b7fe89a3e33314daa4e7fa5ccf,SliderQuestion1,19,0,AlltriangleheartFalse6.jpg,NULL,<center><p style=" font-size: 1.4em;font-family: Book Antiqua%2C Palatino%2C serif;">All of the triangles that are above a heart are connected to it.</p><p></p><center><img style="border:1px solid #08396d; border-radius: 25px; height:300px;" src="http://mdenic.psycholinguae.fr/donkeys/donkey-correlation-january-every/triangleheartFalse6.jpg"></center><p></p></center>,0.77
1556035951,b99047b7fe89a3e33314daa4e7fa5ccf,SliderQuestion1,18,0,AllsquareheartWeak6.jpg,NULL,<center><p style=" font-size: 1.4em;font-family: Book Antiqua%2C Palatino%2C serif;">All of the squares that are above a heart are connected to it.</p><p></p><center><img style="border:1px solid #08396d; border-radius: 25px; height:300px;" src="http://mdenic.psycholinguae.fr/donkeys/donkey-correlation-january-every/squareheartWeak6.jpg"></center><p></p></center>,0.75
# Columns below this comment are as follows:
# 1. Time results were received.
# 2. MD5 hash of participant's IP address.
# 3. Controller name.
# 4. Item number.
# 5. Element number.
# 6. Type.
# 7. Group.
# 8. Field name.
# 9. Field value.
1556035951,b99047b7fe89a3e33314daa4e7fa5ccf,NewForm,2,0,instructions2,NULL,,yes
1556035951,b99047b7fe89a3e33314daa4e7fa5ccf,NewForm,2,0,instructions2,NULL,_REACTION_TIME_,18925
# Columns below this comment are as follows:
# 1. Time results were received.
# 2. MD5 hash of participant's IP address.
# 3. Controller name.
# 4. Item number.
# 5. Element number.
# 6. Type.
# 7. Group.
# 8. html.
# 9. value.
1556035951,b99047b7fe89a3e33314daa4e7fa5ccf,SliderQuestion2,30,0,practice-inference-true,NULL,<p style=" font-size: 1.4em;font-family: Book Antiqua%2C Palatino%2C serif;">Bears from Zoopiter always win any song contest they participate in.</p><br><center><p style=" font-size: 1.2em;font-family: Book Antiqua%2C Palatino%2C serif;color: 3FB8AF;"><i>suggests that</i></p></center><br><p style=" font-size: 1.4em;font-family: Book Antiqua%2C Palatino%2C serif;">Bears from Zoopiter are very musical.</p>,2.76
1556035951,b99047b7fe89a3e33314daa4e7fa5ccf,SliderQuestion2,31,0,practice-inference-false,NULL,<p style=" font-size: 1.4em;font-family: Book Antiqua%2C Palatino%2C serif;">No leopard from Zoopiter visited New York.</p><br><center><p style=" font-size: 1.2em;font-family: Book Antiqua%2C Palatino%2C serif;color: 3FB8AF;"><i>suggests that</i></p></center><br><p style=" font-size: 1.4em;font-family: Book Antiqua%2C Palatino%2C serif;"> All leopards from Zoopiter visited the Statue of Liberty. </p>,1.25
1556035951,b99047b7fe89a3e33314daa4e7fa5ccf,SliderQuestion2,32,0,practice-inference-intermediate,NULL,<p style=" font-size: 1.4em;font-family: Book Antiqua%2C Palatino%2C serif;">Owls from Zoopiter enjoy reading poetry.</p><br><center><p style=" font-size: 1.2em;font-family: Book Antiqua%2C Palatino%2C serif;color: 3FB8AF;"><i>suggests that</i></p></center><br><p style=" font-size: 1.4em;font-family: Book Antiqua%2C Palatino%2C serif;"> Owls from Zoopiter are the animal species which cares the most about art.</p>,0.50
1556035951,b99047b7fe89a3e33314daa4e7fa5ccf,SliderQuestion2,44,0,InfScopeDEprepared an Asian dishprepared a Japanese dishAll,NULL,<p style=" font-size: 1.4em;font-family: Book Antiqua%2C Palatino%2C serif;">All of the cobras from Zoopiter prepared an Asian dish.</p><br><center><p style=" font-size: 1.2em;font-family: Book Antiqua%2C Palatino%2C serif;color: 3FB8AF;"><i>suggests that</i></p></center><br><p style=" font-size: 1.4em;font-family: Book Antiqua%2C Palatino%2C serif;"> All of the cobras from Zoopiter prepared a Japanese dish.</p>,1.06
1556035951,b99047b7fe89a3e33314daa4e7fa5ccf,SliderQuestion2,65,0,InfTruecontrols1wrote a noveldidn't write a novelAll,NULL,<p style=" font-size: 1.4em;font-family: Book Antiqua%2C Palatino%2C serif;">All of the tarantulas from Zoopiter wrote a novel.</p><br><center><p style=" font-size: 1.2em;font-family: Book Antiqua%2C Palatino%2C serif;color: 3FB8AF;"><i>suggests that</i></p></center><br><p style=" font-size: 1.4em;font-family: Book Antiqua%2C Palatino%2C serif;"> There is no tarantula from Zoopiter that didn't write a novel.</p>,3.55
1556035951,b99047b7fe89a3e33314daa4e7fa5ccf,SliderQuestion2,67,0,InfTruecontrols1travelled to Francedidn't travel to FranceAll,NULL,<p style=" font-size: 1.4em;font-family: Book Antiqua%2C Palatino%2C serif;">All of the poodles from Zoopiter travelled to France.</p><br><center><p style=" font-size: 1.2em;font-family: Book Antiqua%2C Palatino%2C serif;color: 3FB8AF;"><i>suggests that</i></p></center><br><p style=" font-size: 1.4em;font-family: Book Antiqua%2C Palatino%2C serif;"> There is no poodle from Zoopiter that didn't travel to France.</p>,3.52
