#
# Results on Tuesday April 23 2019 16:04:08 UTC.
# USER AGENT: Mozilla/5.0 (Windows NT 10.0; Win64; x64) AppleWebKit/537.36 (KHTML, like Gecko) Chrome/73.0.3683.103 Safari/537.36
# Design number was non-random = 0
#
# Columns below this comment are as follows:
# 1. Time results were received.
# 2. MD5 hash of participant's IP address.
# 3. Controller name.
# 4. Item number.
# 5. Element number.
# 6. Type.
# 7. Group.
# 8. Field name.
# 9. Field value.
1556035448,413f8c358a24b3ffc7935236a0385a22,NewForm,0,0,agreement,NULL,,yes
1556035448,413f8c358a24b3ffc7935236a0385a22,NewForm,0,0,agreement,NULL,_REACTION_TIME_,10364
1556035448,413f8c358a24b3ffc7935236a0385a22,NewForm,1,0,instructions1,NULL,,yes
1556035448,413f8c358a24b3ffc7935236a0385a22,NewForm,1,0,instructions1,NULL,_REACTION_TIME_,7550
# Columns below this comment are as follows:
# 1. Time results were received.
# 2. MD5 hash of participant's IP address.
# 3. Controller name.
# 4. Item number.
# 5. Element number.
# 6. Type.
# 7. Group.
# 8. html.
# 9. value.
1556035448,413f8c358a24b3ffc7935236a0385a22,SliderQuestion1,5,0,practice-donkey-true,NULL,<center><p style=" font-size: 1.4em;font-family: Book Antiqua%2C Palatino%2C serif;">Three squares are above at least one heart.</p><p></p><center><img style="border:1px solid #08396d; border-radius: 25px; height:300px;" src="http://mdenic.psycholinguae.fr/donkeys/donkey-correlation-january/practice-truedonkey-0.jpg"></center><p></p></center>,4.05
1556035448,413f8c358a24b3ffc7935236a0385a22,SliderQuestion1,6,0,practice-donkey-false,NULL,<center><p style=" font-size: 1.4em;font-family: Book Antiqua%2C Palatino%2C serif;">One triangle is connected to two stars.</p><p></p><center><img style="border:1px solid #08396d; border-radius: 25px; height:300px;" src="http://mdenic.psycholinguae.fr/donkeys/donkey-correlation-january/practice-falsedonkey-0.jpg"></center><p></p></center>,0.07
1556035448,413f8c358a24b3ffc7935236a0385a22,SliderQuestion1,7,0,practice-donkey-intermediate,NULL,<center><p style=" font-size: 1.4em;font-family: Book Antiqua%2C Palatino%2C serif;">Many squares are above at least one heart.</p><p></p><center><img style="border:1px solid #08396d; border-radius: 25px; height:300px;" src="http://mdenic.psycholinguae.fr/donkeys/donkey-correlation-january/practice-truedonkey-0.jpg"></center><p></p></center>,4.32
1556035448,413f8c358a24b3ffc7935236a0385a22,SliderQuestion1,42,0,FirstBlock-Exactly3squarestarCondition43.jpg,NULL,<center><p style=" font-size: 1.4em;font-family: Book Antiqua%2C Palatino%2C serif;">Exactly 3 of the squares that are above a star are connected to it.</p><p></p><center><img style="border:1px solid #08396d; border-radius: 25px; height:300px;" src="http://mdenic.psycholinguae.fr/donkeys/donkey-correlation-january/squarestarCondition43.jpg"></center><p></p></center>,4.87
1556035448,413f8c358a24b3ffc7935236a0385a22,SliderQuestion1,36,0,FirstBlock-Exactly3squarestarCondition51.jpg,NULL,<center><p style=" font-size: 1.4em;font-family: Book Antiqua%2C Palatino%2C serif;">Exactly 3 of the squares that are above a star are connected to it.</p><p></p><center><img style="border:1px solid #08396d; border-radius: 25px; height:300px;" src="http://mdenic.psycholinguae.fr/donkeys/donkey-correlation-january/squarestarCondition51.jpg"></center><p></p></center>,0.00
1556035448,413f8c358a24b3ffc7935236a0385a22,SliderQuestion1,40,0,FirstBlock-Exactly3squarestarCondition42.jpg,NULL,<center><p style=" font-size: 1.4em;font-family: Book Antiqua%2C Palatino%2C serif;">Exactly 3 of the squares that are above a star are connected to it.</p><p></p><center><img style="border:1px solid #08396d; border-radius: 25px; height:300px;" src="http://mdenic.psycholinguae.fr/donkeys/donkey-correlation-january/squarestarCondition42.jpg"></center><p></p></center>,5.00
1556035448,413f8c358a24b3ffc7935236a0385a22,SliderQuestion1,13,0,FirstBlock-Exactly3triangleheartCondition34.jpg,NULL,<center><p style=" font-size: 1.4em;font-family: Book Antiqua%2C Palatino%2C serif;">Exactly 3 of the triangles that are above a heart are connected to it.</p><p></p><center><img style="border:1px solid #08396d; border-radius: 25px; height:300px;" src="http://mdenic.psycholinguae.fr/donkeys/donkey-correlation-january/triangleheartCondition34.jpg"></center><p></p></center>,5.00
1556035448,413f8c358a24b3ffc7935236a0385a22,SliderQuestion1,15,0,FirstBlock-Exactly3squarestarCondition61.jpg,NULL,<center><p style=" font-size: 1.4em;font-family: Book Antiqua%2C Palatino%2C serif;">Exactly 3 of the squares that are above a star are connected to it.</p><p></p><center><img style="border:1px solid #08396d; border-radius: 25px; height:300px;" src="http://mdenic.psycholinguae.fr/donkeys/donkey-correlation-january/squarestarCondition61.jpg"></center><p></p></center>,0.00
1556035448,413f8c358a24b3ffc7935236a0385a22,SliderQuestion1,12,0,FirstBlock-Exactly3squarestarCondition62.jpg,NULL,<center><p style=" font-size: 1.4em;font-family: Book Antiqua%2C Palatino%2C serif;">Exactly 3 of the squares that are above a star are connected to it.</p><p></p><center><img style="border:1px solid #08396d; border-radius: 25px; height:300px;" src="http://mdenic.psycholinguae.fr/donkeys/donkey-correlation-january/squarestarCondition62.jpg"></center><p></p></center>,0.00
1556035448,413f8c358a24b3ffc7935236a0385a22,SliderQuestion1,31,0,FirstBlock-Exactly3squarestarCondition35.jpg,NULL,<center><p style=" font-size: 1.4em;font-family: Book Antiqua%2C Palatino%2C serif;">Exactly 3 of the squares that are above a star are connected to it.</p><p></p><center><img style="border:1px solid #08396d; border-radius: 25px; height:300px;" src="http://mdenic.psycholinguae.fr/donkeys/donkey-correlation-january/squarestarCondition35.jpg"></center><p></p></center>,5.00
1556035448,413f8c358a24b3ffc7935236a0385a22,SliderQuestion1,25,0,FirstBlock-Exactly3squarestarCondition33.jpg,NULL,<center><p style=" font-size: 1.4em;font-family: Book Antiqua%2C Palatino%2C serif;">Exactly 3 of the squares that are above a star are connected to it.</p><p></p><center><img style="border:1px solid #08396d; border-radius: 25px; height:300px;" src="http://mdenic.psycholinguae.fr/donkeys/donkey-correlation-january/squarestarCondition33.jpg"></center><p></p></center>,5.00
1556035448,413f8c358a24b3ffc7935236a0385a22,SliderQuestion1,37,0,FirstBlock-Exactly3squareheartCondition45.jpg,NULL,<center><p style=" font-size: 1.4em;font-family: Book Antiqua%2C Palatino%2C serif;">Exactly 3 of the squares that are above a heart are connected to it.</p><p></p><center><img style="border:1px solid #08396d; border-radius: 25px; height:300px;" src="http://mdenic.psycholinguae.fr/donkeys/donkey-correlation-january/squareheartCondition45.jpg"></center><p></p></center>,5.00
1556035448,413f8c358a24b3ffc7935236a0385a22,SliderQuestion1,17,0,FirstBlock-Exactly3triangleheartCondition53.jpg,NULL,<center><p style=" font-size: 1.4em;font-family: Book Antiqua%2C Palatino%2C serif;">Exactly 3 of the triangles that are above a heart are connected to it.</p><p></p><center><img style="border:1px solid #08396d; border-radius: 25px; height:300px;" src="http://mdenic.psycholinguae.fr/donkeys/donkey-correlation-january/triangleheartCondition53.jpg"></center><p></p></center>,0.00
1556035448,413f8c358a24b3ffc7935236a0385a22,SliderQuestion1,19,0,FirstBlock-Exactly3triangleheartCondition44.jpg,NULL,<center><p style=" font-size: 1.4em;font-family: Book Antiqua%2C Palatino%2C serif;">Exactly 3 of the triangles that are above a heart are connected to it.</p><p></p><center><img style="border:1px solid #08396d; border-radius: 25px; height:300px;" src="http://mdenic.psycholinguae.fr/donkeys/donkey-correlation-january/triangleheartCondition44.jpg"></center><p></p></center>,4.90
1556035448,413f8c358a24b3ffc7935236a0385a22,SliderQuestion1,20,0,FirstBlock-Exactly3triangleheartCondition41.jpg,NULL,<center><p style=" font-size: 1.4em;font-family: Book Antiqua%2C Palatino%2C serif;">Exactly 3 of the triangles that are above a heart are connected to it.</p><p></p><center><img style="border:1px solid #08396d; border-radius: 25px; height:300px;" src="http://mdenic.psycholinguae.fr/donkeys/donkey-correlation-january/triangleheartCondition41.jpg"></center><p></p></center>,5.00
1556035448,413f8c358a24b3ffc7935236a0385a22,SliderQuestion1,11,0,FirstBlock-Exactly3squarestarCondition63.jpg,NULL,<center><p style=" font-size: 1.4em;font-family: Book Antiqua%2C Palatino%2C serif;">Exactly 3 of the squares that are above a star are connected to it.</p><p></p><center><img style="border:1px solid #08396d; border-radius: 25px; height:300px;" src="http://mdenic.psycholinguae.fr/donkeys/donkey-correlation-january/squarestarCondition63.jpg"></center><p></p></center>,0.00
1556035448,413f8c358a24b3ffc7935236a0385a22,SliderQuestion1,32,0,FirstBlock-Exactly3squarestarCondition36.jpg,NULL,<center><p style=" font-size: 1.4em;font-family: Book Antiqua%2C Palatino%2C serif;">Exactly 3 of the squares that are above a star are connected to it.</p><p></p><center><img style="border:1px solid #08396d; border-radius: 25px; height:300px;" src="http://mdenic.psycholinguae.fr/donkeys/donkey-correlation-january/squarestarCondition36.jpg"></center><p></p></center>,5.00
1556035448,413f8c358a24b3ffc7935236a0385a22,SliderQuestion1,22,0,FirstBlock-Exactly3trianglestarCondition32.jpg,NULL,<center><p style=" font-size: 1.4em;font-family: Book Antiqua%2C Palatino%2C serif;">Exactly 3 of the triangles that are above a star are connected to it.</p><p></p><center><img style="border:1px solid #08396d; border-radius: 25px; height:300px;" src="http://mdenic.psycholinguae.fr/donkeys/donkey-correlation-january/trianglestarCondition32.jpg"></center><p></p></center>,5.00
1556035448,413f8c358a24b3ffc7935236a0385a22,SliderQuestion1,35,0,FirstBlock-Exactly3squareheartCondition52.jpg,NULL,<center><p style=" font-size: 1.4em;font-family: Book Antiqua%2C Palatino%2C serif;">Exactly 3 of the squares that are above a heart are connected to it.</p><p></p><center><img style="border:1px solid #08396d; border-radius: 25px; height:300px;" src="http://mdenic.psycholinguae.fr/donkeys/donkey-correlation-january/squareheartCondition52.jpg"></center><p></p></center>,0.00
1556035448,413f8c358a24b3ffc7935236a0385a22,SliderQuestion1,14,0,FirstBlock-Exactly3trianglestarCondition46.jpg,NULL,<center><p style=" font-size: 1.4em;font-family: Book Antiqua%2C Palatino%2C serif;">Exactly 3 of the triangles that are above a star are connected to it.</p><p></p><center><img style="border:1px solid #08396d; border-radius: 25px; height:300px;" src="http://mdenic.psycholinguae.fr/donkeys/donkey-correlation-january/trianglestarCondition46.jpg"></center><p></p></center>,5.00
1556035448,413f8c358a24b3ffc7935236a0385a22,SliderQuestion1,24,0,FirstBlock-Exactly3squareheartCondition31.jpg,NULL,<center><p style=" font-size: 1.4em;font-family: Book Antiqua%2C Palatino%2C serif;">Exactly 3 of the squares that are above a heart are connected to it.</p><p></p><center><img style="border:1px solid #08396d; border-radius: 25px; height:300px;" src="http://mdenic.psycholinguae.fr/donkeys/donkey-correlation-january/squareheartCondition31.jpg"></center><p></p></center>,5.00
1556035448,413f8c358a24b3ffc7935236a0385a22,SliderQuestion1,28,0,SecondBlock-Exactly3triangleheartCondition65.jpg,NULL,<center><p style=" font-size: 1.4em;font-family: Book Antiqua%2C Palatino%2C serif;">Exactly 3 of the triangles that are above a heart are connected to it.</p><p></p><center><img style="border:1px solid #08396d; border-radius: 25px; height:300px;" src="http://mdenic.psycholinguae.fr/donkeys/donkey-correlation-january/triangleheartCondition65.jpg"></center><p></p></center>,0.00
1556035448,413f8c358a24b3ffc7935236a0385a22,SliderQuestion1,34,0,SecondBlock-Exactly3squarestarCondition23.jpg,NULL,<center><p style=" font-size: 1.4em;font-family: Book Antiqua%2C Palatino%2C serif;">Exactly 3 of the squares that are above a star are connected to it.</p><p></p><center><img style="border:1px solid #08396d; border-radius: 25px; height:300px;" src="http://mdenic.psycholinguae.fr/donkeys/donkey-correlation-january/squarestarCondition23.jpg"></center><p></p></center>,0.00
1556035448,413f8c358a24b3ffc7935236a0385a22,SliderQuestion1,41,0,SecondBlock-Exactly3trianglestarCondition64.jpg,NULL,<center><p style=" font-size: 1.4em;font-family: Book Antiqua%2C Palatino%2C serif;">Exactly 3 of the triangles that are above a star are connected to it.</p><p></p><center><img style="border:1px solid #08396d; border-radius: 25px; height:300px;" src="http://mdenic.psycholinguae.fr/donkeys/donkey-correlation-january/trianglestarCondition64.jpg"></center><p></p></center>,0.00
1556035448,413f8c358a24b3ffc7935236a0385a22,SliderQuestion1,18,0,SecondBlock-Exactly3squarestarCondition11.jpg,NULL,<center><p style=" font-size: 1.4em;font-family: Book Antiqua%2C Palatino%2C serif;">Exactly 3 of the squares that are above a star are connected to it.</p><p></p><center><img style="border:1px solid #08396d; border-radius: 25px; height:300px;" src="http://mdenic.psycholinguae.fr/donkeys/donkey-correlation-january/squarestarCondition11.jpg"></center><p></p></center>,0.13
1556035448,413f8c358a24b3ffc7935236a0385a22,SliderQuestion1,33,0,SecondBlock-Exactly3squarestarCondition22.jpg,NULL,<center><p style=" font-size: 1.4em;font-family: Book Antiqua%2C Palatino%2C serif;">Exactly 3 of the squares that are above a star are connected to it.</p><p></p><center><img style="border:1px solid #08396d; border-radius: 25px; height:300px;" src="http://mdenic.psycholinguae.fr/donkeys/donkey-correlation-january/squarestarCondition22.jpg"></center><p></p></center>,0.00
1556035448,413f8c358a24b3ffc7935236a0385a22,SliderQuestion1,30,0,SecondBlock-Exactly3squarestarCondition21.jpg,NULL,<center><p style=" font-size: 1.4em;font-family: Book Antiqua%2C Palatino%2C serif;">Exactly 3 of the squares that are above a star are connected to it.</p><p></p><center><img style="border:1px solid #08396d; border-radius: 25px; height:300px;" src="http://mdenic.psycholinguae.fr/donkeys/donkey-correlation-january/squarestarCondition21.jpg"></center><p></p></center>,0.00
1556035448,413f8c358a24b3ffc7935236a0385a22,SliderQuestion1,26,0,SecondBlock-Exactly3trianglestarCondition15.jpg,NULL,<center><p style=" font-size: 1.4em;font-family: Book Antiqua%2C Palatino%2C serif;">Exactly 3 of the triangles that are above a star are connected to it.</p><p></p><center><img style="border:1px solid #08396d; border-radius: 25px; height:300px;" src="http://mdenic.psycholinguae.fr/donkeys/donkey-correlation-january/trianglestarCondition15.jpg"></center><p></p></center>,0.00
1556035448,413f8c358a24b3ffc7935236a0385a22,SliderQuestion1,16,0,SecondBlock-Exactly3squarestarCondition12.jpg,NULL,<center><p style=" font-size: 1.4em;font-family: Book Antiqua%2C Palatino%2C serif;">Exactly 3 of the squares that are above a star are connected to it.</p><p></p><center><img style="border:1px solid #08396d; border-radius: 25px; height:300px;" src="http://mdenic.psycholinguae.fr/donkeys/donkey-correlation-january/squarestarCondition12.jpg"></center><p></p></center>,0.00
1556035448,413f8c358a24b3ffc7935236a0385a22,SliderQuestion1,43,0,SecondBlock-Exactly3triangleheartCondition14.jpg,NULL,<center><p style=" font-size: 1.4em;font-family: Book Antiqua%2C Palatino%2C serif;">Exactly 3 of the triangles that are above a heart are connected to it.</p><p></p><center><img style="border:1px solid #08396d; border-radius: 25px; height:300px;" src="http://mdenic.psycholinguae.fr/donkeys/donkey-correlation-january/triangleheartCondition14.jpg"></center><p></p></center>,0.00
1556035448,413f8c358a24b3ffc7935236a0385a22,SliderQuestion1,9,0,SecondBlock-Exactly3triangleheartCondition24.jpg,NULL,<center><p style=" font-size: 1.4em;font-family: Book Antiqua%2C Palatino%2C serif;">Exactly 3 of the triangles that are above a heart are connected to it.</p><p></p><center><img style="border:1px solid #08396d; border-radius: 25px; height:300px;" src="http://mdenic.psycholinguae.fr/donkeys/donkey-correlation-january/triangleheartCondition24.jpg"></center><p></p></center>,0.00
1556035448,413f8c358a24b3ffc7935236a0385a22,SliderQuestion1,10,0,SecondBlock-Exactly3squarestarCondition66.jpg,NULL,<center><p style=" font-size: 1.4em;font-family: Book Antiqua%2C Palatino%2C serif;">Exactly 3 of the squares that are above a star are connected to it.</p><p></p><center><img style="border:1px solid #08396d; border-radius: 25px; height:300px;" src="http://mdenic.psycholinguae.fr/donkeys/donkey-correlation-january/squarestarCondition66.jpg"></center><p></p></center>,0.00
1556035448,413f8c358a24b3ffc7935236a0385a22,SliderQuestion1,23,0,SecondBlock-Exactly3trianglestarCondition25.jpg,NULL,<center><p style=" font-size: 1.4em;font-family: Book Antiqua%2C Palatino%2C serif;">Exactly 3 of the triangles that are above a star are connected to it.</p><p></p><center><img style="border:1px solid #08396d; border-radius: 25px; height:300px;" src="http://mdenic.psycholinguae.fr/donkeys/donkey-correlation-january/trianglestarCondition25.jpg"></center><p></p></center>,0.00
1556035448,413f8c358a24b3ffc7935236a0385a22,SliderQuestion1,27,0,SecondBlock-Exactly3squarestarCondition26.jpg,NULL,<center><p style=" font-size: 1.4em;font-family: Book Antiqua%2C Palatino%2C serif;">Exactly 3 of the squares that are above a star are connected to it.</p><p></p><center><img style="border:1px solid #08396d; border-radius: 25px; height:300px;" src="http://mdenic.psycholinguae.fr/donkeys/donkey-correlation-january/squarestarCondition26.jpg"></center><p></p></center>,0.00
1556035448,413f8c358a24b3ffc7935236a0385a22,SliderQuestion1,8,0,SecondBlock-Exactly3trianglestarCondition56.jpg,NULL,<center><p style=" font-size: 1.4em;font-family: Book Antiqua%2C Palatino%2C serif;">Exactly 3 of the triangles that are above a star are connected to it.</p><p></p><center><img style="border:1px solid #08396d; border-radius: 25px; height:300px;" src="http://mdenic.psycholinguae.fr/donkeys/donkey-correlation-january/trianglestarCondition56.jpg"></center><p></p></center>,0.00
1556035448,413f8c358a24b3ffc7935236a0385a22,SliderQuestion1,21,0,SecondBlock-Exactly3triangleheartCondition55.jpg,NULL,<center><p style=" font-size: 1.4em;font-family: Book Antiqua%2C Palatino%2C serif;">Exactly 3 of the triangles that are above a heart are connected to it.</p><p></p><center><img style="border:1px solid #08396d; border-radius: 25px; height:300px;" src="http://mdenic.psycholinguae.fr/donkeys/donkey-correlation-january/triangleheartCondition55.jpg"></center><p></p></center>,0.00
1556035448,413f8c358a24b3ffc7935236a0385a22,SliderQuestion1,29,0,SecondBlock-Exactly3trianglestarCondition16.jpg,NULL,<center><p style=" font-size: 1.4em;font-family: Book Antiqua%2C Palatino%2C serif;">Exactly 3 of the triangles that are above a star are connected to it.</p><p></p><center><img style="border:1px solid #08396d; border-radius: 25px; height:300px;" src="http://mdenic.psycholinguae.fr/donkeys/donkey-correlation-january/trianglestarCondition16.jpg"></center><p></p></center>,0.00
1556035448,413f8c358a24b3ffc7935236a0385a22,SliderQuestion1,39,0,SecondBlock-Exactly3squareheartCondition54.jpg,NULL,<center><p style=" font-size: 1.4em;font-family: Book Antiqua%2C Palatino%2C serif;">Exactly 3 of the squares that are above a heart are connected to it.</p><p></p><center><img style="border:1px solid #08396d; border-radius: 25px; height:300px;" src="http://mdenic.psycholinguae.fr/donkeys/donkey-correlation-january/squareheartCondition54.jpg"></center><p></p></center>,0.00
1556035448,413f8c358a24b3ffc7935236a0385a22,SliderQuestion1,38,0,SecondBlock-Exactly3triangleheartCondition13.jpg,NULL,<center><p style=" font-size: 1.4em;font-family: Book Antiqua%2C Palatino%2C serif;">Exactly 3 of the triangles that are above a heart are connected to it.</p><p></p><center><img style="border:1px solid #08396d; border-radius: 25px; height:300px;" src="http://mdenic.psycholinguae.fr/donkeys/donkey-correlation-january/triangleheartCondition13.jpg"></center><p></p></center>,0.00
# Columns below this comment are as follows:
# 1. Time results were received.
# 2. MD5 hash of participant's IP address.
# 3. Controller name.
# 4. Item number.
# 5. Element number.
# 6. Type.
# 7. Group.
# 8. Field name.
# 9. Field value.
1556035448,413f8c358a24b3ffc7935236a0385a22,NewForm,44,0,form,NULL,year,1991
1556035448,413f8c358a24b3ffc7935236a0385a22,NewForm,44,0,form,NULL,language,English
1556035448,413f8c358a24b3ffc7935236a0385a22,NewForm,44,0,form,NULL,idturk,A30VAYXB85107X
1556035448,413f8c358a24b3ffc7935236a0385a22,NewForm,44,0,form,NULL,comment,
1556035448,413f8c358a24b3ffc7935236a0385a22,NewForm,44,0,form,NULL,sex,male
1556035448,413f8c358a24b3ffc7935236a0385a22,NewForm,44,0,form,NULL,_REACTION_TIME_,7819
#
# Results on Tuesday April 23 2019 16:04:35 UTC.
# USER AGENT: Mozilla/5.0 (Windows NT 10.0; Win64; x64) AppleWebKit/537.36 (KHTML, like Gecko) Chrome/73.0.3683.103 Safari/537.36
# Design number was non-random = 0
#
# Columns below this comment are as follows:
# 1. Time results were received.
# 2. MD5 hash of participant's IP address.
# 3. Controller name.
# 4. Item number.
# 5. Element number.
# 6. Type.
# 7. Group.
# 8. Field name.
# 9. Field value.
1556035476,5410a1c97dc971505611401499c81c39,NewForm,0,0,agreement,NULL,,yes
1556035476,5410a1c97dc971505611401499c81c39,NewForm,0,0,agreement,NULL,_REACTION_TIME_,37037
1556035476,5410a1c97dc971505611401499c81c39,NewForm,1,0,instructions1,NULL,,yes
1556035476,5410a1c97dc971505611401499c81c39,NewForm,1,0,instructions1,NULL,_REACTION_TIME_,8496
# Columns below this comment are as follows:
# 1. Time results were received.
# 2. MD5 hash of participant's IP address.
# 3. Controller name.
# 4. Item number.
# 5. Element number.
# 6. Type.
# 7. Group.
# 8. html.
# 9. value.
1556035476,5410a1c97dc971505611401499c81c39,SliderQuestion1,5,0,practice-donkey-true,NULL,<center><p style=" font-size: 1.4em;font-family: Book Antiqua%2C Palatino%2C serif;">Three squares are above at least one heart.</p><p></p><center><img style="border:1px solid #08396d; border-radius: 25px; height:300px;" src="http://mdenic.psycholinguae.fr/donkeys/donkey-correlation-january/practice-truedonkey-0.jpg"></center><p></p></center>,4.20
1556035476,5410a1c97dc971505611401499c81c39,SliderQuestion1,6,0,practice-donkey-false,NULL,<center><p style=" font-size: 1.4em;font-family: Book Antiqua%2C Palatino%2C serif;">One triangle is connected to two stars.</p><p></p><center><img style="border:1px solid #08396d; border-radius: 25px; height:300px;" src="http://mdenic.psycholinguae.fr/donkeys/donkey-correlation-january/practice-falsedonkey-0.jpg"></center><p></p></center>,0.00
1556035476,5410a1c97dc971505611401499c81c39,SliderQuestion1,7,0,practice-donkey-intermediate,NULL,<center><p style=" font-size: 1.4em;font-family: Book Antiqua%2C Palatino%2C serif;">Many squares are above at least one heart.</p><p></p><center><img style="border:1px solid #08396d; border-radius: 25px; height:300px;" src="http://mdenic.psycholinguae.fr/donkeys/donkey-correlation-january/practice-truedonkey-0.jpg"></center><p></p></center>,4.84
1556035476,5410a1c97dc971505611401499c81c39,SliderQuestion1,31,0,FirstBlock-Exactly3squarestarCondition35.jpg,NULL,<center><p style=" font-size: 1.4em;font-family: Book Antiqua%2C Palatino%2C serif;">Exactly 3 of the squares that are above a star are connected to it.</p><p></p><center><img style="border:1px solid #08396d; border-radius: 25px; height:300px;" src="http://mdenic.psycholinguae.fr/donkeys/donkey-correlation-january/squarestarCondition35.jpg"></center><p></p></center>,5.00
1556035476,5410a1c97dc971505611401499c81c39,SliderQuestion1,25,0,FirstBlock-Exactly3squarestarCondition33.jpg,NULL,<center><p style=" font-size: 1.4em;font-family: Book Antiqua%2C Palatino%2C serif;">Exactly 3 of the squares that are above a star are connected to it.</p><p></p><center><img style="border:1px solid #08396d; border-radius: 25px; height:300px;" src="http://mdenic.psycholinguae.fr/donkeys/donkey-correlation-january/squarestarCondition33.jpg"></center><p></p></center>,5.00
1556035476,5410a1c97dc971505611401499c81c39,SliderQuestion1,13,0,FirstBlock-Exactly3triangleheartCondition34.jpg,NULL,<center><p style=" font-size: 1.4em;font-family: Book Antiqua%2C Palatino%2C serif;">Exactly 3 of the triangles that are above a heart are connected to it.</p><p></p><center><img style="border:1px solid #08396d; border-radius: 25px; height:300px;" src="http://mdenic.psycholinguae.fr/donkeys/donkey-correlation-january/triangleheartCondition34.jpg"></center><p></p></center>,5.00
1556035476,5410a1c97dc971505611401499c81c39,SliderQuestion1,14,0,FirstBlock-Exactly3trianglestarCondition46.jpg,NULL,<center><p style=" font-size: 1.4em;font-family: Book Antiqua%2C Palatino%2C serif;">Exactly 3 of the triangles that are above a star are connected to it.</p><p></p><center><img style="border:1px solid #08396d; border-radius: 25px; height:300px;" src="http://mdenic.psycholinguae.fr/donkeys/donkey-correlation-january/trianglestarCondition46.jpg"></center><p></p></center>,5.00
1556035476,5410a1c97dc971505611401499c81c39,SliderQuestion1,17,0,FirstBlock-Exactly3triangleheartCondition53.jpg,NULL,<center><p style=" font-size: 1.4em;font-family: Book Antiqua%2C Palatino%2C serif;">Exactly 3 of the triangles that are above a heart are connected to it.</p><p></p><center><img style="border:1px solid #08396d; border-radius: 25px; height:300px;" src="http://mdenic.psycholinguae.fr/donkeys/donkey-correlation-january/triangleheartCondition53.jpg"></center><p></p></center>,0.00
1556035476,5410a1c97dc971505611401499c81c39,SliderQuestion1,12,0,FirstBlock-Exactly3squarestarCondition62.jpg,NULL,<center><p style=" font-size: 1.4em;font-family: Book Antiqua%2C Palatino%2C serif;">Exactly 3 of the squares that are above a star are connected to it.</p><p></p><center><img style="border:1px solid #08396d; border-radius: 25px; height:300px;" src="http://mdenic.psycholinguae.fr/donkeys/donkey-correlation-january/squarestarCondition62.jpg"></center><p></p></center>,0.10
1556035476,5410a1c97dc971505611401499c81c39,SliderQuestion1,37,0,FirstBlock-Exactly3squareheartCondition45.jpg,NULL,<center><p style=" font-size: 1.4em;font-family: Book Antiqua%2C Palatino%2C serif;">Exactly 3 of the squares that are above a heart are connected to it.</p><p></p><center><img style="border:1px solid #08396d; border-radius: 25px; height:300px;" src="http://mdenic.psycholinguae.fr/donkeys/donkey-correlation-january/squareheartCondition45.jpg"></center><p></p></center>,5.00
1556035476,5410a1c97dc971505611401499c81c39,SliderQuestion1,22,0,FirstBlock-Exactly3trianglestarCondition32.jpg,NULL,<center><p style=" font-size: 1.4em;font-family: Book Antiqua%2C Palatino%2C serif;">Exactly 3 of the triangles that are above a star are connected to it.</p><p></p><center><img style="border:1px solid #08396d; border-radius: 25px; height:300px;" src="http://mdenic.psycholinguae.fr/donkeys/donkey-correlation-january/trianglestarCondition32.jpg"></center><p></p></center>,5.00
1556035476,5410a1c97dc971505611401499c81c39,SliderQuestion1,11,0,FirstBlock-Exactly3squarestarCondition63.jpg,NULL,<center><p style=" font-size: 1.4em;font-family: Book Antiqua%2C Palatino%2C serif;">Exactly 3 of the squares that are above a star are connected to it.</p><p></p><center><img style="border:1px solid #08396d; border-radius: 25px; height:300px;" src="http://mdenic.psycholinguae.fr/donkeys/donkey-correlation-january/squarestarCondition63.jpg"></center><p></p></center>,0.00
1556035476,5410a1c97dc971505611401499c81c39,SliderQuestion1,40,0,FirstBlock-Exactly3squarestarCondition42.jpg,NULL,<center><p style=" font-size: 1.4em;font-family: Book Antiqua%2C Palatino%2C serif;">Exactly 3 of the squares that are above a star are connected to it.</p><p></p><center><img style="border:1px solid #08396d; border-radius: 25px; height:300px;" src="http://mdenic.psycholinguae.fr/donkeys/donkey-correlation-january/squarestarCondition42.jpg"></center><p></p></center>,5.00
1556035476,5410a1c97dc971505611401499c81c39,SliderQuestion1,19,0,FirstBlock-Exactly3triangleheartCondition44.jpg,NULL,<center><p style=" font-size: 1.4em;font-family: Book Antiqua%2C Palatino%2C serif;">Exactly 3 of the triangles that are above a heart are connected to it.</p><p></p><center><img style="border:1px solid #08396d; border-radius: 25px; height:300px;" src="http://mdenic.psycholinguae.fr/donkeys/donkey-correlation-january/triangleheartCondition44.jpg"></center><p></p></center>,5.00
1556035476,5410a1c97dc971505611401499c81c39,SliderQuestion1,36,0,FirstBlock-Exactly3squarestarCondition51.jpg,NULL,<center><p style=" font-size: 1.4em;font-family: Book Antiqua%2C Palatino%2C serif;">Exactly 3 of the squares that are above a star are connected to it.</p><p></p><center><img style="border:1px solid #08396d; border-radius: 25px; height:300px;" src="http://mdenic.psycholinguae.fr/donkeys/donkey-correlation-january/squarestarCondition51.jpg"></center><p></p></center>,0.00
1556035476,5410a1c97dc971505611401499c81c39,SliderQuestion1,35,0,FirstBlock-Exactly3squareheartCondition52.jpg,NULL,<center><p style=" font-size: 1.4em;font-family: Book Antiqua%2C Palatino%2C serif;">Exactly 3 of the squares that are above a heart are connected to it.</p><p></p><center><img style="border:1px solid #08396d; border-radius: 25px; height:300px;" src="http://mdenic.psycholinguae.fr/donkeys/donkey-correlation-january/squareheartCondition52.jpg"></center><p></p></center>,0.00
1556035476,5410a1c97dc971505611401499c81c39,SliderQuestion1,24,0,FirstBlock-Exactly3squareheartCondition31.jpg,NULL,<center><p style=" font-size: 1.4em;font-family: Book Antiqua%2C Palatino%2C serif;">Exactly 3 of the squares that are above a heart are connected to it.</p><p></p><center><img style="border:1px solid #08396d; border-radius: 25px; height:300px;" src="http://mdenic.psycholinguae.fr/donkeys/donkey-correlation-january/squareheartCondition31.jpg"></center><p></p></center>,5.00
1556035476,5410a1c97dc971505611401499c81c39,SliderQuestion1,42,0,FirstBlock-Exactly3squarestarCondition43.jpg,NULL,<center><p style=" font-size: 1.4em;font-family: Book Antiqua%2C Palatino%2C serif;">Exactly 3 of the squares that are above a star are connected to it.</p><p></p><center><img style="border:1px solid #08396d; border-radius: 25px; height:300px;" src="http://mdenic.psycholinguae.fr/donkeys/donkey-correlation-january/squarestarCondition43.jpg"></center><p></p></center>,5.00
1556035476,5410a1c97dc971505611401499c81c39,SliderQuestion1,20,0,FirstBlock-Exactly3triangleheartCondition41.jpg,NULL,<center><p style=" font-size: 1.4em;font-family: Book Antiqua%2C Palatino%2C serif;">Exactly 3 of the triangles that are above a heart are connected to it.</p><p></p><center><img style="border:1px solid #08396d; border-radius: 25px; height:300px;" src="http://mdenic.psycholinguae.fr/donkeys/donkey-correlation-january/triangleheartCondition41.jpg"></center><p></p></center>,5.00
1556035476,5410a1c97dc971505611401499c81c39,SliderQuestion1,32,0,FirstBlock-Exactly3squarestarCondition36.jpg,NULL,<center><p style=" font-size: 1.4em;font-family: Book Antiqua%2C Palatino%2C serif;">Exactly 3 of the squares that are above a star are connected to it.</p><p></p><center><img style="border:1px solid #08396d; border-radius: 25px; height:300px;" src="http://mdenic.psycholinguae.fr/donkeys/donkey-correlation-january/squarestarCondition36.jpg"></center><p></p></center>,5.00
1556035476,5410a1c97dc971505611401499c81c39,SliderQuestion1,15,0,FirstBlock-Exactly3squarestarCondition61.jpg,NULL,<center><p style=" font-size: 1.4em;font-family: Book Antiqua%2C Palatino%2C serif;">Exactly 3 of the squares that are above a star are connected to it.</p><p></p><center><img style="border:1px solid #08396d; border-radius: 25px; height:300px;" src="http://mdenic.psycholinguae.fr/donkeys/donkey-correlation-january/squarestarCondition61.jpg"></center><p></p></center>,0.00
1556035476,5410a1c97dc971505611401499c81c39,SliderQuestion1,23,0,SecondBlock-Exactly3trianglestarCondition25.jpg,NULL,<center><p style=" font-size: 1.4em;font-family: Book Antiqua%2C Palatino%2C serif;">Exactly 3 of the triangles that are above a star are connected to it.</p><p></p><center><img style="border:1px solid #08396d; border-radius: 25px; height:300px;" src="http://mdenic.psycholinguae.fr/donkeys/donkey-correlation-january/trianglestarCondition25.jpg"></center><p></p></center>,0.00
1556035476,5410a1c97dc971505611401499c81c39,SliderQuestion1,38,0,SecondBlock-Exactly3triangleheartCondition13.jpg,NULL,<center><p style=" font-size: 1.4em;font-family: Book Antiqua%2C Palatino%2C serif;">Exactly 3 of the triangles that are above a heart are connected to it.</p><p></p><center><img style="border:1px solid #08396d; border-radius: 25px; height:300px;" src="http://mdenic.psycholinguae.fr/donkeys/donkey-correlation-january/triangleheartCondition13.jpg"></center><p></p></center>,0.00
1556035476,5410a1c97dc971505611401499c81c39,SliderQuestion1,41,0,SecondBlock-Exactly3trianglestarCondition64.jpg,NULL,<center><p style=" font-size: 1.4em;font-family: Book Antiqua%2C Palatino%2C serif;">Exactly 3 of the triangles that are above a star are connected to it.</p><p></p><center><img style="border:1px solid #08396d; border-radius: 25px; height:300px;" src="http://mdenic.psycholinguae.fr/donkeys/donkey-correlation-january/trianglestarCondition64.jpg"></center><p></p></center>,0.00
1556035476,5410a1c97dc971505611401499c81c39,SliderQuestion1,30,0,SecondBlock-Exactly3squarestarCondition21.jpg,NULL,<center><p style=" font-size: 1.4em;font-family: Book Antiqua%2C Palatino%2C serif;">Exactly 3 of the squares that are above a star are connected to it.</p><p></p><center><img style="border:1px solid #08396d; border-radius: 25px; height:300px;" src="http://mdenic.psycholinguae.fr/donkeys/donkey-correlation-january/squarestarCondition21.jpg"></center><p></p></center>,0.00
1556035476,5410a1c97dc971505611401499c81c39,SliderQuestion1,16,0,SecondBlock-Exactly3squarestarCondition12.jpg,NULL,<center><p style=" font-size: 1.4em;font-family: Book Antiqua%2C Palatino%2C serif;">Exactly 3 of the squares that are above a star are connected to it.</p><p></p><center><img style="border:1px solid #08396d; border-radius: 25px; height:300px;" src="http://mdenic.psycholinguae.fr/donkeys/donkey-correlation-january/squarestarCondition12.jpg"></center><p></p></center>,0.00
1556035476,5410a1c97dc971505611401499c81c39,SliderQuestion1,8,0,SecondBlock-Exactly3trianglestarCondition56.jpg,NULL,<center><p style=" font-size: 1.4em;font-family: Book Antiqua%2C Palatino%2C serif;">Exactly 3 of the triangles that are above a star are connected to it.</p><p></p><center><img style="border:1px solid #08396d; border-radius: 25px; height:300px;" src="http://mdenic.psycholinguae.fr/donkeys/donkey-correlation-january/trianglestarCondition56.jpg"></center><p></p></center>,0.00
1556035476,5410a1c97dc971505611401499c81c39,SliderQuestion1,28,0,SecondBlock-Exactly3triangleheartCondition65.jpg,NULL,<center><p style=" font-size: 1.4em;font-family: Book Antiqua%2C Palatino%2C serif;">Exactly 3 of the triangles that are above a heart are connected to it.</p><p></p><center><img style="border:1px solid #08396d; border-radius: 25px; height:300px;" src="http://mdenic.psycholinguae.fr/donkeys/donkey-correlation-january/triangleheartCondition65.jpg"></center><p></p></center>,0.00
1556035476,5410a1c97dc971505611401499c81c39,SliderQuestion1,10,0,SecondBlock-Exactly3squarestarCondition66.jpg,NULL,<center><p style=" font-size: 1.4em;font-family: Book Antiqua%2C Palatino%2C serif;">Exactly 3 of the squares that are above a star are connected to it.</p><p></p><center><img style="border:1px solid #08396d; border-radius: 25px; height:300px;" src="http://mdenic.psycholinguae.fr/donkeys/donkey-correlation-january/squarestarCondition66.jpg"></center><p></p></center>,0.00
1556035476,5410a1c97dc971505611401499c81c39,SliderQuestion1,9,0,SecondBlock-Exactly3triangleheartCondition24.jpg,NULL,<center><p style=" font-size: 1.4em;font-family: Book Antiqua%2C Palatino%2C serif;">Exactly 3 of the triangles that are above a heart are connected to it.</p><p></p><center><img style="border:1px solid #08396d; border-radius: 25px; height:300px;" src="http://mdenic.psycholinguae.fr/donkeys/donkey-correlation-january/triangleheartCondition24.jpg"></center><p></p></center>,0.00
1556035476,5410a1c97dc971505611401499c81c39,SliderQuestion1,29,0,SecondBlock-Exactly3trianglestarCondition16.jpg,NULL,<center><p style=" font-size: 1.4em;font-family: Book Antiqua%2C Palatino%2C serif;">Exactly 3 of the triangles that are above a star are connected to it.</p><p></p><center><img style="border:1px solid #08396d; border-radius: 25px; height:300px;" src="http://mdenic.psycholinguae.fr/donkeys/donkey-correlation-january/trianglestarCondition16.jpg"></center><p></p></center>,0.00
1556035476,5410a1c97dc971505611401499c81c39,SliderQuestion1,27,0,SecondBlock-Exactly3squarestarCondition26.jpg,NULL,<center><p style=" font-size: 1.4em;font-family: Book Antiqua%2C Palatino%2C serif;">Exactly 3 of the squares that are above a star are connected to it.</p><p></p><center><img style="border:1px solid #08396d; border-radius: 25px; height:300px;" src="http://mdenic.psycholinguae.fr/donkeys/donkey-correlation-january/squarestarCondition26.jpg"></center><p></p></center>,0.00
1556035476,5410a1c97dc971505611401499c81c39,SliderQuestion1,39,0,SecondBlock-Exactly3squareheartCondition54.jpg,NULL,<center><p style=" font-size: 1.4em;font-family: Book Antiqua%2C Palatino%2C serif;">Exactly 3 of the squares that are above a heart are connected to it.</p><p></p><center><img style="border:1px solid #08396d; border-radius: 25px; height:300px;" src="http://mdenic.psycholinguae.fr/donkeys/donkey-correlation-january/squareheartCondition54.jpg"></center><p></p></center>,0.00
1556035476,5410a1c97dc971505611401499c81c39,SliderQuestion1,43,0,SecondBlock-Exactly3triangleheartCondition14.jpg,NULL,<center><p style=" font-size: 1.4em;font-family: Book Antiqua%2C Palatino%2C serif;">Exactly 3 of the triangles that are above a heart are connected to it.</p><p></p><center><img style="border:1px solid #08396d; border-radius: 25px; height:300px;" src="http://mdenic.psycholinguae.fr/donkeys/donkey-correlation-january/triangleheartCondition14.jpg"></center><p></p></center>,0.00
1556035476,5410a1c97dc971505611401499c81c39,SliderQuestion1,21,0,SecondBlock-Exactly3triangleheartCondition55.jpg,NULL,<center><p style=" font-size: 1.4em;font-family: Book Antiqua%2C Palatino%2C serif;">Exactly 3 of the triangles that are above a heart are connected to it.</p><p></p><center><img style="border:1px solid #08396d; border-radius: 25px; height:300px;" src="http://mdenic.psycholinguae.fr/donkeys/donkey-correlation-january/triangleheartCondition55.jpg"></center><p></p></center>,0.00
1556035476,5410a1c97dc971505611401499c81c39,SliderQuestion1,18,0,SecondBlock-Exactly3squarestarCondition11.jpg,NULL,<center><p style=" font-size: 1.4em;font-family: Book Antiqua%2C Palatino%2C serif;">Exactly 3 of the squares that are above a star are connected to it.</p><p></p><center><img style="border:1px solid #08396d; border-radius: 25px; height:300px;" src="http://mdenic.psycholinguae.fr/donkeys/donkey-correlation-january/squarestarCondition11.jpg"></center><p></p></center>,0.00
1556035476,5410a1c97dc971505611401499c81c39,SliderQuestion1,26,0,SecondBlock-Exactly3trianglestarCondition15.jpg,NULL,<center><p style=" font-size: 1.4em;font-family: Book Antiqua%2C Palatino%2C serif;">Exactly 3 of the triangles that are above a star are connected to it.</p><p></p><center><img style="border:1px solid #08396d; border-radius: 25px; height:300px;" src="http://mdenic.psycholinguae.fr/donkeys/donkey-correlation-january/trianglestarCondition15.jpg"></center><p></p></center>,0.00
1556035476,5410a1c97dc971505611401499c81c39,SliderQuestion1,33,0,SecondBlock-Exactly3squarestarCondition22.jpg,NULL,<center><p style=" font-size: 1.4em;font-family: Book Antiqua%2C Palatino%2C serif;">Exactly 3 of the squares that are above a star are connected to it.</p><p></p><center><img style="border:1px solid #08396d; border-radius: 25px; height:300px;" src="http://mdenic.psycholinguae.fr/donkeys/donkey-correlation-january/squarestarCondition22.jpg"></center><p></p></center>,0.17
1556035476,5410a1c97dc971505611401499c81c39,SliderQuestion1,34,0,SecondBlock-Exactly3squarestarCondition23.jpg,NULL,<center><p style=" font-size: 1.4em;font-family: Book Antiqua%2C Palatino%2C serif;">Exactly 3 of the squares that are above a star are connected to it.</p><p></p><center><img style="border:1px solid #08396d; border-radius: 25px; height:300px;" src="http://mdenic.psycholinguae.fr/donkeys/donkey-correlation-january/squarestarCondition23.jpg"></center><p></p></center>,0.00
# Columns below this comment are as follows:
# 1. Time results were received.
# 2. MD5 hash of participant's IP address.
# 3. Controller name.
# 4. Item number.
# 5. Element number.
# 6. Type.
# 7. Group.
# 8. Field name.
# 9. Field value.
1556035476,5410a1c97dc971505611401499c81c39,NewForm,44,0,form,NULL,year,1989
1556035476,5410a1c97dc971505611401499c81c39,NewForm,44,0,form,NULL,language,English
1556035476,5410a1c97dc971505611401499c81c39,NewForm,44,0,form,NULL,idturk,A3FCZNB9E8K3CX
1556035476,5410a1c97dc971505611401499c81c39,NewForm,44,0,form,NULL,comment,
1556035476,5410a1c97dc971505611401499c81c39,NewForm,44,0,form,NULL,sex,female
1556035476,5410a1c97dc971505611401499c81c39,NewForm,44,0,form,NULL,_REACTION_TIME_,13671
#
# Results on Tuesday April 23 2019 16:05:39 UTC.
# USER AGENT: Mozilla/5.0 (Windows NT 10.0; Win64; x64) AppleWebKit/537.36 (KHTML, like Gecko) Chrome/73.0.3683.103 Safari/537.36
# Design number was non-random = 0
#
# Columns below this comment are as follows:
# 1. Time results were received.
# 2. MD5 hash of participant's IP address.
# 3. Controller name.
# 4. Item number.
# 5. Element number.
# 6. Type.
# 7. Group.
# 8. Field name.
# 9. Field value.
1556035539,387c6ee1745d61c1d8f775bdc6dcf571,NewForm,0,0,agreement,NULL,,yes
1556035539,387c6ee1745d61c1d8f775bdc6dcf571,NewForm,0,0,agreement,NULL,_REACTION_TIME_,3792
1556035539,387c6ee1745d61c1d8f775bdc6dcf571,NewForm,1,0,instructions1,NULL,,yes
1556035539,387c6ee1745d61c1d8f775bdc6dcf571,NewForm,1,0,instructions1,NULL,_REACTION_TIME_,6907
# Columns below this comment are as follows:
# 1. Time results were received.
# 2. MD5 hash of participant's IP address.
# 3. Controller name.
# 4. Item number.
# 5. Element number.
# 6. Type.
# 7. Group.
# 8. html.
# 9. value.
1556035539,387c6ee1745d61c1d8f775bdc6dcf571,SliderQuestion1,5,0,practice-donkey-true,NULL,<center><p style=" font-size: 1.4em;font-family: Book Antiqua%2C Palatino%2C serif;">Three squares are above at least one heart.</p><p></p><center><img style="border:1px solid #08396d; border-radius: 25px; height:300px;" src="http://mdenic.psycholinguae.fr/donkeys/donkey-correlation-january/practice-truedonkey-0.jpg"></center><p></p></center>,5.00
1556035539,387c6ee1745d61c1d8f775bdc6dcf571,SliderQuestion1,6,0,practice-donkey-false,NULL,<center><p style=" font-size: 1.4em;font-family: Book Antiqua%2C Palatino%2C serif;">One triangle is connected to two stars.</p><p></p><center><img style="border:1px solid #08396d; border-radius: 25px; height:300px;" src="http://mdenic.psycholinguae.fr/donkeys/donkey-correlation-january/practice-falsedonkey-0.jpg"></center><p></p></center>,0.20
1556035539,387c6ee1745d61c1d8f775bdc6dcf571,SliderQuestion1,7,0,practice-donkey-intermediate,NULL,<center><p style=" font-size: 1.4em;font-family: Book Antiqua%2C Palatino%2C serif;">Many squares are above at least one heart.</p><p></p><center><img style="border:1px solid #08396d; border-radius: 25px; height:300px;" src="http://mdenic.psycholinguae.fr/donkeys/donkey-correlation-january/practice-truedonkey-0.jpg"></center><p></p></center>,1.22
1556035539,387c6ee1745d61c1d8f775bdc6dcf571,SliderQuestion1,31,0,FirstBlock-Exactly3squarestarCondition35.jpg,NULL,<center><p style=" font-size: 1.4em;font-family: Book Antiqua%2C Palatino%2C serif;">Exactly 3 of the squares that are above a star are connected to it.</p><p></p><center><img style="border:1px solid #08396d; border-radius: 25px; height:300px;" src="http://mdenic.psycholinguae.fr/donkeys/donkey-correlation-january/squarestarCondition35.jpg"></center><p></p></center>,5.00
1556035539,387c6ee1745d61c1d8f775bdc6dcf571,SliderQuestion1,11,0,FirstBlock-Exactly3squarestarCondition63.jpg,NULL,<center><p style=" font-size: 1.4em;font-family: Book Antiqua%2C Palatino%2C serif;">Exactly 3 of the squares that are above a star are connected to it.</p><p></p><center><img style="border:1px solid #08396d; border-radius: 25px; height:300px;" src="http://mdenic.psycholinguae.fr/donkeys/donkey-correlation-january/squarestarCondition63.jpg"></center><p></p></center>,0.00
1556035539,387c6ee1745d61c1d8f775bdc6dcf571,SliderQuestion1,12,0,FirstBlock-Exactly3squarestarCondition62.jpg,NULL,<center><p style=" font-size: 1.4em;font-family: Book Antiqua%2C Palatino%2C serif;">Exactly 3 of the squares that are above a star are connected to it.</p><p></p><center><img style="border:1px solid #08396d; border-radius: 25px; height:300px;" src="http://mdenic.psycholinguae.fr/donkeys/donkey-correlation-january/squarestarCondition62.jpg"></center><p></p></center>,0.00
1556035539,387c6ee1745d61c1d8f775bdc6dcf571,SliderQuestion1,15,0,FirstBlock-Exactly3squarestarCondition61.jpg,NULL,<center><p style=" font-size: 1.4em;font-family: Book Antiqua%2C Palatino%2C serif;">Exactly 3 of the squares that are above a star are connected to it.</p><p></p><center><img style="border:1px solid #08396d; border-radius: 25px; height:300px;" src="http://mdenic.psycholinguae.fr/donkeys/donkey-correlation-january/squarestarCondition61.jpg"></center><p></p></center>,0.00
1556035539,387c6ee1745d61c1d8f775bdc6dcf571,SliderQuestion1,40,0,FirstBlock-Exactly3squarestarCondition42.jpg,NULL,<center><p style=" font-size: 1.4em;font-family: Book Antiqua%2C Palatino%2C serif;">Exactly 3 of the squares that are above a star are connected to it.</p><p></p><center><img style="border:1px solid #08396d; border-radius: 25px; height:300px;" src="http://mdenic.psycholinguae.fr/donkeys/donkey-correlation-january/squarestarCondition42.jpg"></center><p></p></center>,4.22
1556035539,387c6ee1745d61c1d8f775bdc6dcf571,SliderQuestion1,14,0,FirstBlock-Exactly3trianglestarCondition46.jpg,NULL,<center><p style=" font-size: 1.4em;font-family: Book Antiqua%2C Palatino%2C serif;">Exactly 3 of the triangles that are above a star are connected to it.</p><p></p><center><img style="border:1px solid #08396d; border-radius: 25px; height:300px;" src="http://mdenic.psycholinguae.fr/donkeys/donkey-correlation-january/trianglestarCondition46.jpg"></center><p></p></center>,4.48
1556035539,387c6ee1745d61c1d8f775bdc6dcf571,SliderQuestion1,37,0,FirstBlock-Exactly3squareheartCondition45.jpg,NULL,<center><p style=" font-size: 1.4em;font-family: Book Antiqua%2C Palatino%2C serif;">Exactly 3 of the squares that are above a heart are connected to it.</p><p></p><center><img style="border:1px solid #08396d; border-radius: 25px; height:300px;" src="http://mdenic.psycholinguae.fr/donkeys/donkey-correlation-january/squareheartCondition45.jpg"></center><p></p></center>,4.50
1556035539,387c6ee1745d61c1d8f775bdc6dcf571,SliderQuestion1,25,0,FirstBlock-Exactly3squarestarCondition33.jpg,NULL,<center><p style=" font-size: 1.4em;font-family: Book Antiqua%2C Palatino%2C serif;">Exactly 3 of the squares that are above a star are connected to it.</p><p></p><center><img style="border:1px solid #08396d; border-radius: 25px; height:300px;" src="http://mdenic.psycholinguae.fr/donkeys/donkey-correlation-january/squarestarCondition33.jpg"></center><p></p></center>,4.58
1556035539,387c6ee1745d61c1d8f775bdc6dcf571,SliderQuestion1,32,0,FirstBlock-Exactly3squarestarCondition36.jpg,NULL,<center><p style=" font-size: 1.4em;font-family: Book Antiqua%2C Palatino%2C serif;">Exactly 3 of the squares that are above a star are connected to it.</p><p></p><center><img style="border:1px solid #08396d; border-radius: 25px; height:300px;" src="http://mdenic.psycholinguae.fr/donkeys/donkey-correlation-january/squarestarCondition36.jpg"></center><p></p></center>,4.64
1556035539,387c6ee1745d61c1d8f775bdc6dcf571,SliderQuestion1,22,0,FirstBlock-Exactly3trianglestarCondition32.jpg,NULL,<center><p style=" font-size: 1.4em;font-family: Book Antiqua%2C Palatino%2C serif;">Exactly 3 of the triangles that are above a star are connected to it.</p><p></p><center><img style="border:1px solid #08396d; border-radius: 25px; height:300px;" src="http://mdenic.psycholinguae.fr/donkeys/donkey-correlation-january/trianglestarCondition32.jpg"></center><p></p></center>,4.56
1556035539,387c6ee1745d61c1d8f775bdc6dcf571,SliderQuestion1,13,0,FirstBlock-Exactly3triangleheartCondition34.jpg,NULL,<center><p style=" font-size: 1.4em;font-family: Book Antiqua%2C Palatino%2C serif;">Exactly 3 of the triangles that are above a heart are connected to it.</p><p></p><center><img style="border:1px solid #08396d; border-radius: 25px; height:300px;" src="http://mdenic.psycholinguae.fr/donkeys/donkey-correlation-january/triangleheartCondition34.jpg"></center><p></p></center>,4.75
1556035539,387c6ee1745d61c1d8f775bdc6dcf571,SliderQuestion1,20,0,FirstBlock-Exactly3triangleheartCondition41.jpg,NULL,<center><p style=" font-size: 1.4em;font-family: Book Antiqua%2C Palatino%2C serif;">Exactly 3 of the triangles that are above a heart are connected to it.</p><p></p><center><img style="border:1px solid #08396d; border-radius: 25px; height:300px;" src="http://mdenic.psycholinguae.fr/donkeys/donkey-correlation-january/triangleheartCondition41.jpg"></center><p></p></center>,4.24
1556035539,387c6ee1745d61c1d8f775bdc6dcf571,SliderQuestion1,35,0,FirstBlock-Exactly3squareheartCondition52.jpg,NULL,<center><p style=" font-size: 1.4em;font-family: Book Antiqua%2C Palatino%2C serif;">Exactly 3 of the squares that are above a heart are connected to it.</p><p></p><center><img style="border:1px solid #08396d; border-radius: 25px; height:300px;" src="http://mdenic.psycholinguae.fr/donkeys/donkey-correlation-january/squareheartCondition52.jpg"></center><p></p></center>,0.00
1556035539,387c6ee1745d61c1d8f775bdc6dcf571,SliderQuestion1,17,0,FirstBlock-Exactly3triangleheartCondition53.jpg,NULL,<center><p style=" font-size: 1.4em;font-family: Book Antiqua%2C Palatino%2C serif;">Exactly 3 of the triangles that are above a heart are connected to it.</p><p></p><center><img style="border:1px solid #08396d; border-radius: 25px; height:300px;" src="http://mdenic.psycholinguae.fr/donkeys/donkey-correlation-january/triangleheartCondition53.jpg"></center><p></p></center>,0.00
1556035539,387c6ee1745d61c1d8f775bdc6dcf571,SliderQuestion1,36,0,FirstBlock-Exactly3squarestarCondition51.jpg,NULL,<center><p style=" font-size: 1.4em;font-family: Book Antiqua%2C Palatino%2C serif;">Exactly 3 of the squares that are above a star are connected to it.</p><p></p><center><img style="border:1px solid #08396d; border-radius: 25px; height:300px;" src="http://mdenic.psycholinguae.fr/donkeys/donkey-correlation-january/squarestarCondition51.jpg"></center><p></p></center>,0.00
1556035539,387c6ee1745d61c1d8f775bdc6dcf571,SliderQuestion1,24,0,FirstBlock-Exactly3squareheartCondition31.jpg,NULL,<center><p style=" font-size: 1.4em;font-family: Book Antiqua%2C Palatino%2C serif;">Exactly 3 of the squares that are above a heart are connected to it.</p><p></p><center><img style="border:1px solid #08396d; border-radius: 25px; height:300px;" src="http://mdenic.psycholinguae.fr/donkeys/donkey-correlation-january/squareheartCondition31.jpg"></center><p></p></center>,4.78
1556035539,387c6ee1745d61c1d8f775bdc6dcf571,SliderQuestion1,19,0,FirstBlock-Exactly3triangleheartCondition44.jpg,NULL,<center><p style=" font-size: 1.4em;font-family: Book Antiqua%2C Palatino%2C serif;">Exactly 3 of the triangles that are above a heart are connected to it.</p><p></p><center><img style="border:1px solid #08396d; border-radius: 25px; height:300px;" src="http://mdenic.psycholinguae.fr/donkeys/donkey-correlation-january/triangleheartCondition44.jpg"></center><p></p></center>,4.51
1556035539,387c6ee1745d61c1d8f775bdc6dcf571,SliderQuestion1,42,0,FirstBlock-Exactly3squarestarCondition43.jpg,NULL,<center><p style=" font-size: 1.4em;font-family: Book Antiqua%2C Palatino%2C serif;">Exactly 3 of the squares that are above a star are connected to it.</p><p></p><center><img style="border:1px solid #08396d; border-radius: 25px; height:300px;" src="http://mdenic.psycholinguae.fr/donkeys/donkey-correlation-january/squarestarCondition43.jpg"></center><p></p></center>,4.43
1556035539,387c6ee1745d61c1d8f775bdc6dcf571,SliderQuestion1,27,0,SecondBlock-Exactly3squarestarCondition26.jpg,NULL,<center><p style=" font-size: 1.4em;font-family: Book Antiqua%2C Palatino%2C serif;">Exactly 3 of the squares that are above a star are connected to it.</p><p></p><center><img style="border:1px solid #08396d; border-radius: 25px; height:300px;" src="http://mdenic.psycholinguae.fr/donkeys/donkey-correlation-january/squarestarCondition26.jpg"></center><p></p></center>,0.00
1556035539,387c6ee1745d61c1d8f775bdc6dcf571,SliderQuestion1,43,0,SecondBlock-Exactly3triangleheartCondition14.jpg,NULL,<center><p style=" font-size: 1.4em;font-family: Book Antiqua%2C Palatino%2C serif;">Exactly 3 of the triangles that are above a heart are connected to it.</p><p></p><center><img style="border:1px solid #08396d; border-radius: 25px; height:300px;" src="http://mdenic.psycholinguae.fr/donkeys/donkey-correlation-january/triangleheartCondition14.jpg"></center><p></p></center>,0.00
1556035539,387c6ee1745d61c1d8f775bdc6dcf571,SliderQuestion1,8,0,SecondBlock-Exactly3trianglestarCondition56.jpg,NULL,<center><p style=" font-size: 1.4em;font-family: Book Antiqua%2C Palatino%2C serif;">Exactly 3 of the triangles that are above a star are connected to it.</p><p></p><center><img style="border:1px solid #08396d; border-radius: 25px; height:300px;" src="http://mdenic.psycholinguae.fr/donkeys/donkey-correlation-january/trianglestarCondition56.jpg"></center><p></p></center>,0.00
1556035539,387c6ee1745d61c1d8f775bdc6dcf571,SliderQuestion1,41,0,SecondBlock-Exactly3trianglestarCondition64.jpg,NULL,<center><p style=" font-size: 1.4em;font-family: Book Antiqua%2C Palatino%2C serif;">Exactly 3 of the triangles that are above a star are connected to it.</p><p></p><center><img style="border:1px solid #08396d; border-radius: 25px; height:300px;" src="http://mdenic.psycholinguae.fr/donkeys/donkey-correlation-january/trianglestarCondition64.jpg"></center><p></p></center>,0.00
1556035539,387c6ee1745d61c1d8f775bdc6dcf571,SliderQuestion1,23,0,SecondBlock-Exactly3trianglestarCondition25.jpg,NULL,<center><p style=" font-size: 1.4em;font-family: Book Antiqua%2C Palatino%2C serif;">Exactly 3 of the triangles that are above a star are connected to it.</p><p></p><center><img style="border:1px solid #08396d; border-radius: 25px; height:300px;" src="http://mdenic.psycholinguae.fr/donkeys/donkey-correlation-january/trianglestarCondition25.jpg"></center><p></p></center>,0.00
1556035539,387c6ee1745d61c1d8f775bdc6dcf571,SliderQuestion1,21,0,SecondBlock-Exactly3triangleheartCondition55.jpg,NULL,<center><p style=" font-size: 1.4em;font-family: Book Antiqua%2C Palatino%2C serif;">Exactly 3 of the triangles that are above a heart are connected to it.</p><p></p><center><img style="border:1px solid #08396d; border-radius: 25px; height:300px;" src="http://mdenic.psycholinguae.fr/donkeys/donkey-correlation-january/triangleheartCondition55.jpg"></center><p></p></center>,0.00
1556035539,387c6ee1745d61c1d8f775bdc6dcf571,SliderQuestion1,28,0,SecondBlock-Exactly3triangleheartCondition65.jpg,NULL,<center><p style=" font-size: 1.4em;font-family: Book Antiqua%2C Palatino%2C serif;">Exactly 3 of the triangles that are above a heart are connected to it.</p><p></p><center><img style="border:1px solid #08396d; border-radius: 25px; height:300px;" src="http://mdenic.psycholinguae.fr/donkeys/donkey-correlation-january/triangleheartCondition65.jpg"></center><p></p></center>,0.00
1556035539,387c6ee1745d61c1d8f775bdc6dcf571,SliderQuestion1,16,0,SecondBlock-Exactly3squarestarCondition12.jpg,NULL,<center><p style=" font-size: 1.4em;font-family: Book Antiqua%2C Palatino%2C serif;">Exactly 3 of the squares that are above a star are connected to it.</p><p></p><center><img style="border:1px solid #08396d; border-radius: 25px; height:300px;" src="http://mdenic.psycholinguae.fr/donkeys/donkey-correlation-january/squarestarCondition12.jpg"></center><p></p></center>,0.00
1556035539,387c6ee1745d61c1d8f775bdc6dcf571,SliderQuestion1,26,0,SecondBlock-Exactly3trianglestarCondition15.jpg,NULL,<center><p style=" font-size: 1.4em;font-family: Book Antiqua%2C Palatino%2C serif;">Exactly 3 of the triangles that are above a star are connected to it.</p><p></p><center><img style="border:1px solid #08396d; border-radius: 25px; height:300px;" src="http://mdenic.psycholinguae.fr/donkeys/donkey-correlation-january/trianglestarCondition15.jpg"></center><p></p></center>,0.00
1556035539,387c6ee1745d61c1d8f775bdc6dcf571,SliderQuestion1,39,0,SecondBlock-Exactly3squareheartCondition54.jpg,NULL,<center><p style=" font-size: 1.4em;font-family: Book Antiqua%2C Palatino%2C serif;">Exactly 3 of the squares that are above a heart are connected to it.</p><p></p><center><img style="border:1px solid #08396d; border-radius: 25px; height:300px;" src="http://mdenic.psycholinguae.fr/donkeys/donkey-correlation-january/squareheartCondition54.jpg"></center><p></p></center>,0.00
1556035539,387c6ee1745d61c1d8f775bdc6dcf571,SliderQuestion1,10,0,SecondBlock-Exactly3squarestarCondition66.jpg,NULL,<center><p style=" font-size: 1.4em;font-family: Book Antiqua%2C Palatino%2C serif;">Exactly 3 of the squares that are above a star are connected to it.</p><p></p><center><img style="border:1px solid #08396d; border-radius: 25px; height:300px;" src="http://mdenic.psycholinguae.fr/donkeys/donkey-correlation-january/squarestarCondition66.jpg"></center><p></p></center>,0.00
1556035539,387c6ee1745d61c1d8f775bdc6dcf571,SliderQuestion1,33,0,SecondBlock-Exactly3squarestarCondition22.jpg,NULL,<center><p style=" font-size: 1.4em;font-family: Book Antiqua%2C Palatino%2C serif;">Exactly 3 of the squares that are above a star are connected to it.</p><p></p><center><img style="border:1px solid #08396d; border-radius: 25px; height:300px;" src="http://mdenic.psycholinguae.fr/donkeys/donkey-correlation-january/squarestarCondition22.jpg"></center><p></p></center>,0.00
1556035539,387c6ee1745d61c1d8f775bdc6dcf571,SliderQuestion1,34,0,SecondBlock-Exactly3squarestarCondition23.jpg,NULL,<center><p style=" font-size: 1.4em;font-family: Book Antiqua%2C Palatino%2C serif;">Exactly 3 of the squares that are above a star are connected to it.</p><p></p><center><img style="border:1px solid #08396d; border-radius: 25px; height:300px;" src="http://mdenic.psycholinguae.fr/donkeys/donkey-correlation-january/squarestarCondition23.jpg"></center><p></p></center>,0.00
1556035539,387c6ee1745d61c1d8f775bdc6dcf571,SliderQuestion1,38,0,SecondBlock-Exactly3triangleheartCondition13.jpg,NULL,<center><p style=" font-size: 1.4em;font-family: Book Antiqua%2C Palatino%2C serif;">Exactly 3 of the triangles that are above a heart are connected to it.</p><p></p><center><img style="border:1px solid #08396d; border-radius: 25px; height:300px;" src="http://mdenic.psycholinguae.fr/donkeys/donkey-correlation-january/triangleheartCondition13.jpg"></center><p></p></center>,0.00
1556035539,387c6ee1745d61c1d8f775bdc6dcf571,SliderQuestion1,9,0,SecondBlock-Exactly3triangleheartCondition24.jpg,NULL,<center><p style=" font-size: 1.4em;font-family: Book Antiqua%2C Palatino%2C serif;">Exactly 3 of the triangles that are above a heart are connected to it.</p><p></p><center><img style="border:1px solid #08396d; border-radius: 25px; height:300px;" src="http://mdenic.psycholinguae.fr/donkeys/donkey-correlation-january/triangleheartCondition24.jpg"></center><p></p></center>,0.00
1556035539,387c6ee1745d61c1d8f775bdc6dcf571,SliderQuestion1,18,0,SecondBlock-Exactly3squarestarCondition11.jpg,NULL,<center><p style=" font-size: 1.4em;font-family: Book Antiqua%2C Palatino%2C serif;">Exactly 3 of the squares that are above a star are connected to it.</p><p></p><center><img style="border:1px solid #08396d; border-radius: 25px; height:300px;" src="http://mdenic.psycholinguae.fr/donkeys/donkey-correlation-january/squarestarCondition11.jpg"></center><p></p></center>,0.00
1556035539,387c6ee1745d61c1d8f775bdc6dcf571,SliderQuestion1,29,0,SecondBlock-Exactly3trianglestarCondition16.jpg,NULL,<center><p style=" font-size: 1.4em;font-family: Book Antiqua%2C Palatino%2C serif;">Exactly 3 of the triangles that are above a star are connected to it.</p><p></p><center><img style="border:1px solid #08396d; border-radius: 25px; height:300px;" src="http://mdenic.psycholinguae.fr/donkeys/donkey-correlation-january/trianglestarCondition16.jpg"></center><p></p></center>,0.00
1556035539,387c6ee1745d61c1d8f775bdc6dcf571,SliderQuestion1,30,0,SecondBlock-Exactly3squarestarCondition21.jpg,NULL,<center><p style=" font-size: 1.4em;font-family: Book Antiqua%2C Palatino%2C serif;">Exactly 3 of the squares that are above a star are connected to it.</p><p></p><center><img style="border:1px solid #08396d; border-radius: 25px; height:300px;" src="http://mdenic.psycholinguae.fr/donkeys/donkey-correlation-january/squarestarCondition21.jpg"></center><p></p></center>,0.00
# Columns below this comment are as follows:
# 1. Time results were received.
# 2. MD5 hash of participant's IP address.
# 3. Controller name.
# 4. Item number.
# 5. Element number.
# 6. Type.
# 7. Group.
# 8. Field name.
# 9. Field value.
1556035539,387c6ee1745d61c1d8f775bdc6dcf571,NewForm,44,0,form,NULL,year,1994
1556035539,387c6ee1745d61c1d8f775bdc6dcf571,NewForm,44,0,form,NULL,language,English
1556035539,387c6ee1745d61c1d8f775bdc6dcf571,NewForm,44,0,form,NULL,idturk,A272X64FOZFYLB
1556035539,387c6ee1745d61c1d8f775bdc6dcf571,NewForm,44,0,form,NULL,comment,
1556035539,387c6ee1745d61c1d8f775bdc6dcf571,NewForm,44,0,form,NULL,sex,male
1556035539,387c6ee1745d61c1d8f775bdc6dcf571,NewForm,44,0,form,NULL,_REACTION_TIME_,10528
#
# Results on Tuesday April 23 2019 16:06:22 UTC.
# USER AGENT: Mozilla/5.0 (Windows NT 10.0; Win64; x64) AppleWebKit/537.36 (KHTML, like Gecko) Chrome/73.0.3683.103 Safari/537.36
# Design number was non-random = 0
#
# Columns below this comment are as follows:
# 1. Time results were received.
# 2. MD5 hash of participant's IP address.
# 3. Controller name.
# 4. Item number.
# 5. Element number.
# 6. Type.
# 7. Group.
# 8. Field name.
# 9. Field value.
1556035583,a720e1feca309ac6c3d41933a03e4ce6,NewForm,0,0,agreement,NULL,,yes
1556035583,a720e1feca309ac6c3d41933a03e4ce6,NewForm,0,0,agreement,NULL,_REACTION_TIME_,2307
1556035583,a720e1feca309ac6c3d41933a03e4ce6,NewForm,1,0,instructions1,NULL,,yes
1556035583,a720e1feca309ac6c3d41933a03e4ce6,NewForm,1,0,instructions1,NULL,_REACTION_TIME_,6654
# Columns below this comment are as follows:
# 1. Time results were received.
# 2. MD5 hash of participant's IP address.
# 3. Controller name.
# 4. Item number.
# 5. Element number.
# 6. Type.
# 7. Group.
# 8. html.
# 9. value.
1556035583,a720e1feca309ac6c3d41933a03e4ce6,SliderQuestion1,5,0,practice-donkey-true,NULL,<center><p style=" font-size: 1.4em;font-family: Book Antiqua%2C Palatino%2C serif;">Three squares are above at least one heart.</p><p></p><center><img style="border:1px solid #08396d; border-radius: 25px; height:300px;" src="http://mdenic.psycholinguae.fr/donkeys/donkey-correlation-january/practice-truedonkey-0.jpg"></center><p></p></center>,5.00
1556035583,a720e1feca309ac6c3d41933a03e4ce6,SliderQuestion1,6,0,practice-donkey-false,NULL,<center><p style=" font-size: 1.4em;font-family: Book Antiqua%2C Palatino%2C serif;">One triangle is connected to two stars.</p><p></p><center><img style="border:1px solid #08396d; border-radius: 25px; height:300px;" src="http://mdenic.psycholinguae.fr/donkeys/donkey-correlation-january/practice-falsedonkey-0.jpg"></center><p></p></center>,0.00
1556035583,a720e1feca309ac6c3d41933a03e4ce6,SliderQuestion1,7,0,practice-donkey-intermediate,NULL,<center><p style=" font-size: 1.4em;font-family: Book Antiqua%2C Palatino%2C serif;">Many squares are above at least one heart.</p><p></p><center><img style="border:1px solid #08396d; border-radius: 25px; height:300px;" src="http://mdenic.psycholinguae.fr/donkeys/donkey-correlation-january/practice-truedonkey-0.jpg"></center><p></p></center>,5.00
1556035583,a720e1feca309ac6c3d41933a03e4ce6,SliderQuestion1,11,0,FirstBlock-Exactly3squarestarCondition63.jpg,NULL,<center><p style=" font-size: 1.4em;font-family: Book Antiqua%2C Palatino%2C serif;">Exactly 3 of the squares that are above a star are connected to it.</p><p></p><center><img style="border:1px solid #08396d; border-radius: 25px; height:300px;" src="http://mdenic.psycholinguae.fr/donkeys/donkey-correlation-january/squarestarCondition63.jpg"></center><p></p></center>,0.00
1556035583,a720e1feca309ac6c3d41933a03e4ce6,SliderQuestion1,31,0,FirstBlock-Exactly3squarestarCondition35.jpg,NULL,<center><p style=" font-size: 1.4em;font-family: Book Antiqua%2C Palatino%2C serif;">Exactly 3 of the squares that are above a star are connected to it.</p><p></p><center><img style="border:1px solid #08396d; border-radius: 25px; height:300px;" src="http://mdenic.psycholinguae.fr/donkeys/donkey-correlation-january/squarestarCondition35.jpg"></center><p></p></center>,5.00
1556035583,a720e1feca309ac6c3d41933a03e4ce6,SliderQuestion1,19,0,FirstBlock-Exactly3triangleheartCondition44.jpg,NULL,<center><p style=" font-size: 1.4em;font-family: Book Antiqua%2C Palatino%2C serif;">Exactly 3 of the triangles that are above a heart are connected to it.</p><p></p><center><img style="border:1px solid #08396d; border-radius: 25px; height:300px;" src="http://mdenic.psycholinguae.fr/donkeys/donkey-correlation-january/triangleheartCondition44.jpg"></center><p></p></center>,5.00
1556035583,a720e1feca309ac6c3d41933a03e4ce6,SliderQuestion1,35,0,FirstBlock-Exactly3squareheartCondition52.jpg,NULL,<center><p style=" font-size: 1.4em;font-family: Book Antiqua%2C Palatino%2C serif;">Exactly 3 of the squares that are above a heart are connected to it.</p><p></p><center><img style="border:1px solid #08396d; border-radius: 25px; height:300px;" src="http://mdenic.psycholinguae.fr/donkeys/donkey-correlation-january/squareheartCondition52.jpg"></center><p></p></center>,0.00
1556035583,a720e1feca309ac6c3d41933a03e4ce6,SliderQuestion1,25,0,FirstBlock-Exactly3squarestarCondition33.jpg,NULL,<center><p style=" font-size: 1.4em;font-family: Book Antiqua%2C Palatino%2C serif;">Exactly 3 of the squares that are above a star are connected to it.</p><p></p><center><img style="border:1px solid #08396d; border-radius: 25px; height:300px;" src="http://mdenic.psycholinguae.fr/donkeys/donkey-correlation-january/squarestarCondition33.jpg"></center><p></p></center>,5.00
1556035583,a720e1feca309ac6c3d41933a03e4ce6,SliderQuestion1,14,0,FirstBlock-Exactly3trianglestarCondition46.jpg,NULL,<center><p style=" font-size: 1.4em;font-family: Book Antiqua%2C Palatino%2C serif;">Exactly 3 of the triangles that are above a star are connected to it.</p><p></p><center><img style="border:1px solid #08396d; border-radius: 25px; height:300px;" src="http://mdenic.psycholinguae.fr/donkeys/donkey-correlation-january/trianglestarCondition46.jpg"></center><p></p></center>,5.00
1556035583,a720e1feca309ac6c3d41933a03e4ce6,SliderQuestion1,42,0,FirstBlock-Exactly3squarestarCondition43.jpg,NULL,<center><p style=" font-size: 1.4em;font-family: Book Antiqua%2C Palatino%2C serif;">Exactly 3 of the squares that are above a star are connected to it.</p><p></p><center><img style="border:1px solid #08396d; border-radius: 25px; height:300px;" src="http://mdenic.psycholinguae.fr/donkeys/donkey-correlation-january/squarestarCondition43.jpg"></center><p></p></center>,5.00
1556035583,a720e1feca309ac6c3d41933a03e4ce6,SliderQuestion1,24,0,FirstBlock-Exactly3squareheartCondition31.jpg,NULL,<center><p style=" font-size: 1.4em;font-family: Book Antiqua%2C Palatino%2C serif;">Exactly 3 of the squares that are above a heart are connected to it.</p><p></p><center><img style="border:1px solid #08396d; border-radius: 25px; height:300px;" src="http://mdenic.psycholinguae.fr/donkeys/donkey-correlation-january/squareheartCondition31.jpg"></center><p></p></center>,5.00
1556035583,a720e1feca309ac6c3d41933a03e4ce6,SliderQuestion1,40,0,FirstBlock-Exactly3squarestarCondition42.jpg,NULL,<center><p style=" font-size: 1.4em;font-family: Book Antiqua%2C Palatino%2C serif;">Exactly 3 of the squares that are above a star are connected to it.</p><p></p><center><img style="border:1px solid #08396d; border-radius: 25px; height:300px;" src="http://mdenic.psycholinguae.fr/donkeys/donkey-correlation-january/squarestarCondition42.jpg"></center><p></p></center>,5.00
1556035583,a720e1feca309ac6c3d41933a03e4ce6,SliderQuestion1,22,0,FirstBlock-Exactly3trianglestarCondition32.jpg,NULL,<center><p style=" font-size: 1.4em;font-family: Book Antiqua%2C Palatino%2C serif;">Exactly 3 of the triangles that are above a star are connected to it.</p><p></p><center><img style="border:1px solid #08396d; border-radius: 25px; height:300px;" src="http://mdenic.psycholinguae.fr/donkeys/donkey-correlation-january/trianglestarCondition32.jpg"></center><p></p></center>,5.00
1556035583,a720e1feca309ac6c3d41933a03e4ce6,SliderQuestion1,37,0,FirstBlock-Exactly3squareheartCondition45.jpg,NULL,<center><p style=" font-size: 1.4em;font-family: Book Antiqua%2C Palatino%2C serif;">Exactly 3 of the squares that are above a heart are connected to it.</p><p></p><center><img style="border:1px solid #08396d; border-radius: 25px; height:300px;" src="http://mdenic.psycholinguae.fr/donkeys/donkey-correlation-january/squareheartCondition45.jpg"></center><p></p></center>,5.00
1556035583,a720e1feca309ac6c3d41933a03e4ce6,SliderQuestion1,12,0,FirstBlock-Exactly3squarestarCondition62.jpg,NULL,<center><p style=" font-size: 1.4em;font-family: Book Antiqua%2C Palatino%2C serif;">Exactly 3 of the squares that are above a star are connected to it.</p><p></p><center><img style="border:1px solid #08396d; border-radius: 25px; height:300px;" src="http://mdenic.psycholinguae.fr/donkeys/donkey-correlation-january/squarestarCondition62.jpg"></center><p></p></center>,0.00
1556035583,a720e1feca309ac6c3d41933a03e4ce6,SliderQuestion1,17,0,FirstBlock-Exactly3triangleheartCondition53.jpg,NULL,<center><p style=" font-size: 1.4em;font-family: Book Antiqua%2C Palatino%2C serif;">Exactly 3 of the triangles that are above a heart are connected to it.</p><p></p><center><img style="border:1px solid #08396d; border-radius: 25px; height:300px;" src="http://mdenic.psycholinguae.fr/donkeys/donkey-correlation-january/triangleheartCondition53.jpg"></center><p></p></center>,0.00
1556035583,a720e1feca309ac6c3d41933a03e4ce6,SliderQuestion1,36,0,FirstBlock-Exactly3squarestarCondition51.jpg,NULL,<center><p style=" font-size: 1.4em;font-family: Book Antiqua%2C Palatino%2C serif;">Exactly 3 of the squares that are above a star are connected to it.</p><p></p><center><img style="border:1px solid #08396d; border-radius: 25px; height:300px;" src="http://mdenic.psycholinguae.fr/donkeys/donkey-correlation-january/squarestarCondition51.jpg"></center><p></p></center>,0.00
1556035583,a720e1feca309ac6c3d41933a03e4ce6,SliderQuestion1,32,0,FirstBlock-Exactly3squarestarCondition36.jpg,NULL,<center><p style=" font-size: 1.4em;font-family: Book Antiqua%2C Palatino%2C serif;">Exactly 3 of the squares that are above a star are connected to it.</p><p></p><center><img style="border:1px solid #08396d; border-radius: 25px; height:300px;" src="http://mdenic.psycholinguae.fr/donkeys/donkey-correlation-january/squarestarCondition36.jpg"></center><p></p></center>,5.00
1556035583,a720e1feca309ac6c3d41933a03e4ce6,SliderQuestion1,15,0,FirstBlock-Exactly3squarestarCondition61.jpg,NULL,<center><p style=" font-size: 1.4em;font-family: Book Antiqua%2C Palatino%2C serif;">Exactly 3 of the squares that are above a star are connected to it.</p><p></p><center><img style="border:1px solid #08396d; border-radius: 25px; height:300px;" src="http://mdenic.psycholinguae.fr/donkeys/donkey-correlation-january/squarestarCondition61.jpg"></center><p></p></center>,0.00
1556035583,a720e1feca309ac6c3d41933a03e4ce6,SliderQuestion1,20,0,FirstBlock-Exactly3triangleheartCondition41.jpg,NULL,<center><p style=" font-size: 1.4em;font-family: Book Antiqua%2C Palatino%2C serif;">Exactly 3 of the triangles that are above a heart are connected to it.</p><p></p><center><img style="border:1px solid #08396d; border-radius: 25px; height:300px;" src="http://mdenic.psycholinguae.fr/donkeys/donkey-correlation-january/triangleheartCondition41.jpg"></center><p></p></center>,5.00
1556035583,a720e1feca309ac6c3d41933a03e4ce6,SliderQuestion1,13,0,FirstBlock-Exactly3triangleheartCondition34.jpg,NULL,<center><p style=" font-size: 1.4em;font-family: Book Antiqua%2C Palatino%2C serif;">Exactly 3 of the triangles that are above a heart are connected to it.</p><p></p><center><img style="border:1px solid #08396d; border-radius: 25px; height:300px;" src="http://mdenic.psycholinguae.fr/donkeys/donkey-correlation-january/triangleheartCondition34.jpg"></center><p></p></center>,5.00
1556035583,a720e1feca309ac6c3d41933a03e4ce6,SliderQuestion1,41,0,SecondBlock-Exactly3trianglestarCondition64.jpg,NULL,<center><p style=" font-size: 1.4em;font-family: Book Antiqua%2C Palatino%2C serif;">Exactly 3 of the triangles that are above a star are connected to it.</p><p></p><center><img style="border:1px solid #08396d; border-radius: 25px; height:300px;" src="http://mdenic.psycholinguae.fr/donkeys/donkey-correlation-january/trianglestarCondition64.jpg"></center><p></p></center>,0.00
1556035583,a720e1feca309ac6c3d41933a03e4ce6,SliderQuestion1,29,0,SecondBlock-Exactly3trianglestarCondition16.jpg,NULL,<center><p style=" font-size: 1.4em;font-family: Book Antiqua%2C Palatino%2C serif;">Exactly 3 of the triangles that are above a star are connected to it.</p><p></p><center><img style="border:1px solid #08396d; border-radius: 25px; height:300px;" src="http://mdenic.psycholinguae.fr/donkeys/donkey-correlation-january/trianglestarCondition16.jpg"></center><p></p></center>,0.00
1556035583,a720e1feca309ac6c3d41933a03e4ce6,SliderQuestion1,30,0,SecondBlock-Exactly3squarestarCondition21.jpg,NULL,<center><p style=" font-size: 1.4em;font-family: Book Antiqua%2C Palatino%2C serif;">Exactly 3 of the squares that are above a star are connected to it.</p><p></p><center><img style="border:1px solid #08396d; border-radius: 25px; height:300px;" src="http://mdenic.psycholinguae.fr/donkeys/donkey-correlation-january/squarestarCondition21.jpg"></center><p></p></center>,0.00
1556035583,a720e1feca309ac6c3d41933a03e4ce6,SliderQuestion1,34,0,SecondBlock-Exactly3squarestarCondition23.jpg,NULL,<center><p style=" font-size: 1.4em;font-family: Book Antiqua%2C Palatino%2C serif;">Exactly 3 of the squares that are above a star are connected to it.</p><p></p><center><img style="border:1px solid #08396d; border-radius: 25px; height:300px;" src="http://mdenic.psycholinguae.fr/donkeys/donkey-correlation-january/squarestarCondition23.jpg"></center><p></p></center>,0.00
1556035583,a720e1feca309ac6c3d41933a03e4ce6,SliderQuestion1,8,0,SecondBlock-Exactly3trianglestarCondition56.jpg,NULL,<center><p style=" font-size: 1.4em;font-family: Book Antiqua%2C Palatino%2C serif;">Exactly 3 of the triangles that are above a star are connected to it.</p><p></p><center><img style="border:1px solid #08396d; border-radius: 25px; height:300px;" src="http://mdenic.psycholinguae.fr/donkeys/donkey-correlation-january/trianglestarCondition56.jpg"></center><p></p></center>,0.00
1556035583,a720e1feca309ac6c3d41933a03e4ce6,SliderQuestion1,21,0,SecondBlock-Exactly3triangleheartCondition55.jpg,NULL,<center><p style=" font-size: 1.4em;font-family: Book Antiqua%2C Palatino%2C serif;">Exactly 3 of the triangles that are above a heart are connected to it.</p><p></p><center><img style="border:1px solid #08396d; border-radius: 25px; height:300px;" src="http://mdenic.psycholinguae.fr/donkeys/donkey-correlation-january/triangleheartCondition55.jpg"></center><p></p></center>,0.00
1556035583,a720e1feca309ac6c3d41933a03e4ce6,SliderQuestion1,18,0,SecondBlock-Exactly3squarestarCondition11.jpg,NULL,<center><p style=" font-size: 1.4em;font-family: Book Antiqua%2C Palatino%2C serif;">Exactly 3 of the squares that are above a star are connected to it.</p><p></p><center><img style="border:1px solid #08396d; border-radius: 25px; height:300px;" src="http://mdenic.psycholinguae.fr/donkeys/donkey-correlation-january/squarestarCondition11.jpg"></center><p></p></center>,0.00
1556035583,a720e1feca309ac6c3d41933a03e4ce6,SliderQuestion1,16,0,SecondBlock-Exactly3squarestarCondition12.jpg,NULL,<center><p style=" font-size: 1.4em;font-family: Book Antiqua%2C Palatino%2C serif;">Exactly 3 of the squares that are above a star are connected to it.</p><p></p><center><img style="border:1px solid #08396d; border-radius: 25px; height:300px;" src="http://mdenic.psycholinguae.fr/donkeys/donkey-correlation-january/squarestarCondition12.jpg"></center><p></p></center>,0.00
1556035583,a720e1feca309ac6c3d41933a03e4ce6,SliderQuestion1,23,0,SecondBlock-Exactly3trianglestarCondition25.jpg,NULL,<center><p style=" font-size: 1.4em;font-family: Book Antiqua%2C Palatino%2C serif;">Exactly 3 of the triangles that are above a star are connected to it.</p><p></p><center><img style="border:1px solid #08396d; border-radius: 25px; height:300px;" src="http://mdenic.psycholinguae.fr/donkeys/donkey-correlation-january/trianglestarCondition25.jpg"></center><p></p></center>,0.00
1556035583,a720e1feca309ac6c3d41933a03e4ce6,SliderQuestion1,26,0,SecondBlock-Exactly3trianglestarCondition15.jpg,NULL,<center><p style=" font-size: 1.4em;font-family: Book Antiqua%2C Palatino%2C serif;">Exactly 3 of the triangles that are above a star are connected to it.</p><p></p><center><img style="border:1px solid #08396d; border-radius: 25px; height:300px;" src="http://mdenic.psycholinguae.fr/donkeys/donkey-correlation-january/trianglestarCondition15.jpg"></center><p></p></center>,0.00
1556035583,a720e1feca309ac6c3d41933a03e4ce6,SliderQuestion1,10,0,SecondBlock-Exactly3squarestarCondition66.jpg,NULL,<center><p style=" font-size: 1.4em;font-family: Book Antiqua%2C Palatino%2C serif;">Exactly 3 of the squares that are above a star are connected to it.</p><p></p><center><img style="border:1px solid #08396d; border-radius: 25px; height:300px;" src="http://mdenic.psycholinguae.fr/donkeys/donkey-correlation-january/squarestarCondition66.jpg"></center><p></p></center>,0.00
1556035583,a720e1feca309ac6c3d41933a03e4ce6,SliderQuestion1,27,0,SecondBlock-Exactly3squarestarCondition26.jpg,NULL,<center><p style=" font-size: 1.4em;font-family: Book Antiqua%2C Palatino%2C serif;">Exactly 3 of the squares that are above a star are connected to it.</p><p></p><center><img style="border:1px solid #08396d; border-radius: 25px; height:300px;" src="http://mdenic.psycholinguae.fr/donkeys/donkey-correlation-january/squarestarCondition26.jpg"></center><p></p></center>,0.00
1556035583,a720e1feca309ac6c3d41933a03e4ce6,SliderQuestion1,28,0,SecondBlock-Exactly3triangleheartCondition65.jpg,NULL,<center><p style=" font-size: 1.4em;font-family: Book Antiqua%2C Palatino%2C serif;">Exactly 3 of the triangles that are above a heart are connected to it.</p><p></p><center><img style="border:1px solid #08396d; border-radius: 25px; height:300px;" src="http://mdenic.psycholinguae.fr/donkeys/donkey-correlation-january/triangleheartCondition65.jpg"></center><p></p></center>,0.00
1556035583,a720e1feca309ac6c3d41933a03e4ce6,SliderQuestion1,9,0,SecondBlock-Exactly3triangleheartCondition24.jpg,NULL,<center><p style=" font-size: 1.4em;font-family: Book Antiqua%2C Palatino%2C serif;">Exactly 3 of the triangles that are above a heart are connected to it.</p><p></p><center><img style="border:1px solid #08396d; border-radius: 25px; height:300px;" src="http://mdenic.psycholinguae.fr/donkeys/donkey-correlation-january/triangleheartCondition24.jpg"></center><p></p></center>,0.00
1556035583,a720e1feca309ac6c3d41933a03e4ce6,SliderQuestion1,39,0,SecondBlock-Exactly3squareheartCondition54.jpg,NULL,<center><p style=" font-size: 1.4em;font-family: Book Antiqua%2C Palatino%2C serif;">Exactly 3 of the squares that are above a heart are connected to it.</p><p></p><center><img style="border:1px solid #08396d; border-radius: 25px; height:300px;" src="http://mdenic.psycholinguae.fr/donkeys/donkey-correlation-january/squareheartCondition54.jpg"></center><p></p></center>,0.00
1556035583,a720e1feca309ac6c3d41933a03e4ce6,SliderQuestion1,33,0,SecondBlock-Exactly3squarestarCondition22.jpg,NULL,<center><p style=" font-size: 1.4em;font-family: Book Antiqua%2C Palatino%2C serif;">Exactly 3 of the squares that are above a star are connected to it.</p><p></p><center><img style="border:1px solid #08396d; border-radius: 25px; height:300px;" src="http://mdenic.psycholinguae.fr/donkeys/donkey-correlation-january/squarestarCondition22.jpg"></center><p></p></center>,0.00
1556035583,a720e1feca309ac6c3d41933a03e4ce6,SliderQuestion1,38,0,SecondBlock-Exactly3triangleheartCondition13.jpg,NULL,<center><p style=" font-size: 1.4em;font-family: Book Antiqua%2C Palatino%2C serif;">Exactly 3 of the triangles that are above a heart are connected to it.</p><p></p><center><img style="border:1px solid #08396d; border-radius: 25px; height:300px;" src="http://mdenic.psycholinguae.fr/donkeys/donkey-correlation-january/triangleheartCondition13.jpg"></center><p></p></center>,0.00
1556035583,a720e1feca309ac6c3d41933a03e4ce6,SliderQuestion1,43,0,SecondBlock-Exactly3triangleheartCondition14.jpg,NULL,<center><p style=" font-size: 1.4em;font-family: Book Antiqua%2C Palatino%2C serif;">Exactly 3 of the triangles that are above a heart are connected to it.</p><p></p><center><img style="border:1px solid #08396d; border-radius: 25px; height:300px;" src="http://mdenic.psycholinguae.fr/donkeys/donkey-correlation-january/triangleheartCondition14.jpg"></center><p></p></center>,0.00
# Columns below this comment are as follows:
# 1. Time results were received.
# 2. MD5 hash of participant's IP address.
# 3. Controller name.
# 4. Item number.
# 5. Element number.
# 6. Type.
# 7. Group.
# 8. Field name.
# 9. Field value.
1556035583,a720e1feca309ac6c3d41933a03e4ce6,NewForm,44,0,form,NULL,year,1982
1556035583,a720e1feca309ac6c3d41933a03e4ce6,NewForm,44,0,form,NULL,language,English
1556035583,a720e1feca309ac6c3d41933a03e4ce6,NewForm,44,0,form,NULL,idturk,A26NGLGGFTATVN
1556035583,a720e1feca309ac6c3d41933a03e4ce6,NewForm,44,0,form,NULL,comment,
1556035583,a720e1feca309ac6c3d41933a03e4ce6,NewForm,44,0,form,NULL,sex,male
1556035583,a720e1feca309ac6c3d41933a03e4ce6,NewForm,44,0,form,NULL,_REACTION_TIME_,9105
#
# Results on Tuesday April 23 2019 16:06:37 UTC.
# USER AGENT: Mozilla/5.0 (Windows NT 10.0; Win64; x64) AppleWebKit/537.36 (KHTML, like Gecko) Chrome/73.0.3683.103 Safari/537.36
# Design number was non-random = 0
#
# Columns below this comment are as follows:
# 1. Time results were received.
# 2. MD5 hash of participant's IP address.
# 3. Controller name.
# 4. Item number.
# 5. Element number.
# 6. Type.
# 7. Group.
# 8. Field name.
# 9. Field value.
1556035597,f3f6bf939865e63be18168976fc71523,NewForm,0,0,agreement,NULL,,yes
1556035597,f3f6bf939865e63be18168976fc71523,NewForm,0,0,agreement,NULL,_REACTION_TIME_,5126
1556035597,f3f6bf939865e63be18168976fc71523,NewForm,1,0,instructions1,NULL,,yes
1556035597,f3f6bf939865e63be18168976fc71523,NewForm,1,0,instructions1,NULL,_REACTION_TIME_,10514
# Columns below this comment are as follows:
# 1. Time results were received.
# 2. MD5 hash of participant's IP address.
# 3. Controller name.
# 4. Item number.
# 5. Element number.
# 6. Type.
# 7. Group.
# 8. html.
# 9. value.
1556035597,f3f6bf939865e63be18168976fc71523,SliderQuestion1,5,0,practice-donkey-true,NULL,<center><p style=" font-size: 1.4em;font-family: Book Antiqua%2C Palatino%2C serif;">Three squares are above at least one heart.</p><p></p><center><img style="border:1px solid #08396d; border-radius: 25px; height:300px;" src="http://mdenic.psycholinguae.fr/donkeys/donkey-correlation-january/practice-truedonkey-0.jpg"></center><p></p></center>,5.00
1556035597,f3f6bf939865e63be18168976fc71523,SliderQuestion1,6,0,practice-donkey-false,NULL,<center><p style=" font-size: 1.4em;font-family: Book Antiqua%2C Palatino%2C serif;">One triangle is connected to two stars.</p><p></p><center><img style="border:1px solid #08396d; border-radius: 25px; height:300px;" src="http://mdenic.psycholinguae.fr/donkeys/donkey-correlation-january/practice-falsedonkey-0.jpg"></center><p></p></center>,0.00
1556035597,f3f6bf939865e63be18168976fc71523,SliderQuestion1,7,0,practice-donkey-intermediate,NULL,<center><p style=" font-size: 1.4em;font-family: Book Antiqua%2C Palatino%2C serif;">Many squares are above at least one heart.</p><p></p><center><img style="border:1px solid #08396d; border-radius: 25px; height:300px;" src="http://mdenic.psycholinguae.fr/donkeys/donkey-correlation-january/practice-truedonkey-0.jpg"></center><p></p></center>,5.00
1556035597,f3f6bf939865e63be18168976fc71523,SliderQuestion1,14,0,FirstBlock-Exactly3trianglestarCondition46.jpg,NULL,<center><p style=" font-size: 1.4em;font-family: Book Antiqua%2C Palatino%2C serif;">Exactly 3 of the triangles that are above a star are connected to it.</p><p></p><center><img style="border:1px solid #08396d; border-radius: 25px; height:300px;" src="http://mdenic.psycholinguae.fr/donkeys/donkey-correlation-january/trianglestarCondition46.jpg"></center><p></p></center>,4.99
1556035597,f3f6bf939865e63be18168976fc71523,SliderQuestion1,40,0,FirstBlock-Exactly3squarestarCondition42.jpg,NULL,<center><p style=" font-size: 1.4em;font-family: Book Antiqua%2C Palatino%2C serif;">Exactly 3 of the squares that are above a star are connected to it.</p><p></p><center><img style="border:1px solid #08396d; border-radius: 25px; height:300px;" src="http://mdenic.psycholinguae.fr/donkeys/donkey-correlation-january/squarestarCondition42.jpg"></center><p></p></center>,5.00
1556035597,f3f6bf939865e63be18168976fc71523,SliderQuestion1,35,0,FirstBlock-Exactly3squareheartCondition52.jpg,NULL,<center><p style=" font-size: 1.4em;font-family: Book Antiqua%2C Palatino%2C serif;">Exactly 3 of the squares that are above a heart are connected to it.</p><p></p><center><img style="border:1px solid #08396d; border-radius: 25px; height:300px;" src="http://mdenic.psycholinguae.fr/donkeys/donkey-correlation-january/squareheartCondition52.jpg"></center><p></p></center>,0.00
1556035597,f3f6bf939865e63be18168976fc71523,SliderQuestion1,42,0,FirstBlock-Exactly3squarestarCondition43.jpg,NULL,<center><p style=" font-size: 1.4em;font-family: Book Antiqua%2C Palatino%2C serif;">Exactly 3 of the squares that are above a star are connected to it.</p><p></p><center><img style="border:1px solid #08396d; border-radius: 25px; height:300px;" src="http://mdenic.psycholinguae.fr/donkeys/donkey-correlation-january/squarestarCondition43.jpg"></center><p></p></center>,5.00
1556035597,f3f6bf939865e63be18168976fc71523,SliderQuestion1,22,0,FirstBlock-Exactly3trianglestarCondition32.jpg,NULL,<center><p style=" font-size: 1.4em;font-family: Book Antiqua%2C Palatino%2C serif;">Exactly 3 of the triangles that are above a star are connected to it.</p><p></p><center><img style="border:1px solid #08396d; border-radius: 25px; height:300px;" src="http://mdenic.psycholinguae.fr/donkeys/donkey-correlation-january/trianglestarCondition32.jpg"></center><p></p></center>,4.88
1556035597,f3f6bf939865e63be18168976fc71523,SliderQuestion1,36,0,FirstBlock-Exactly3squarestarCondition51.jpg,NULL,<center><p style=" font-size: 1.4em;font-family: Book Antiqua%2C Palatino%2C serif;">Exactly 3 of the squares that are above a star are connected to it.</p><p></p><center><img style="border:1px solid #08396d; border-radius: 25px; height:300px;" src="http://mdenic.psycholinguae.fr/donkeys/donkey-correlation-january/squarestarCondition51.jpg"></center><p></p></center>,0.00
1556035597,f3f6bf939865e63be18168976fc71523,SliderQuestion1,32,0,FirstBlock-Exactly3squarestarCondition36.jpg,NULL,<center><p style=" font-size: 1.4em;font-family: Book Antiqua%2C Palatino%2C serif;">Exactly 3 of the squares that are above a star are connected to it.</p><p></p><center><img style="border:1px solid #08396d; border-radius: 25px; height:300px;" src="http://mdenic.psycholinguae.fr/donkeys/donkey-correlation-january/squarestarCondition36.jpg"></center><p></p></center>,5.00
1556035597,f3f6bf939865e63be18168976fc71523,SliderQuestion1,19,0,FirstBlock-Exactly3triangleheartCondition44.jpg,NULL,<center><p style=" font-size: 1.4em;font-family: Book Antiqua%2C Palatino%2C serif;">Exactly 3 of the triangles that are above a heart are connected to it.</p><p></p><center><img style="border:1px solid #08396d; border-radius: 25px; height:300px;" src="http://mdenic.psycholinguae.fr/donkeys/donkey-correlation-january/triangleheartCondition44.jpg"></center><p></p></center>,5.00
1556035597,f3f6bf939865e63be18168976fc71523,SliderQuestion1,37,0,FirstBlock-Exactly3squareheartCondition45.jpg,NULL,<center><p style=" font-size: 1.4em;font-family: Book Antiqua%2C Palatino%2C serif;">Exactly 3 of the squares that are above a heart are connected to it.</p><p></p><center><img style="border:1px solid #08396d; border-radius: 25px; height:300px;" src="http://mdenic.psycholinguae.fr/donkeys/donkey-correlation-january/squareheartCondition45.jpg"></center><p></p></center>,5.00
1556035597,f3f6bf939865e63be18168976fc71523,SliderQuestion1,20,0,FirstBlock-Exactly3triangleheartCondition41.jpg,NULL,<center><p style=" font-size: 1.4em;font-family: Book Antiqua%2C Palatino%2C serif;">Exactly 3 of the triangles that are above a heart are connected to it.</p><p></p><center><img style="border:1px solid #08396d; border-radius: 25px; height:300px;" src="http://mdenic.psycholinguae.fr/donkeys/donkey-correlation-january/triangleheartCondition41.jpg"></center><p></p></center>,5.00
1556035597,f3f6bf939865e63be18168976fc71523,SliderQuestion1,11,0,FirstBlock-Exactly3squarestarCondition63.jpg,NULL,<center><p style=" font-size: 1.4em;font-family: Book Antiqua%2C Palatino%2C serif;">Exactly 3 of the squares that are above a star are connected to it.</p><p></p><center><img style="border:1px solid #08396d; border-radius: 25px; height:300px;" src="http://mdenic.psycholinguae.fr/donkeys/donkey-correlation-january/squarestarCondition63.jpg"></center><p></p></center>,0.00
1556035597,f3f6bf939865e63be18168976fc71523,SliderQuestion1,31,0,FirstBlock-Exactly3squarestarCondition35.jpg,NULL,<center><p style=" font-size: 1.4em;font-family: Book Antiqua%2C Palatino%2C serif;">Exactly 3 of the squares that are above a star are connected to it.</p><p></p><center><img style="border:1px solid #08396d; border-radius: 25px; height:300px;" src="http://mdenic.psycholinguae.fr/donkeys/donkey-correlation-january/squarestarCondition35.jpg"></center><p></p></center>,5.00
1556035597,f3f6bf939865e63be18168976fc71523,SliderQuestion1,24,0,FirstBlock-Exactly3squareheartCondition31.jpg,NULL,<center><p style=" font-size: 1.4em;font-family: Book Antiqua%2C Palatino%2C serif;">Exactly 3 of the squares that are above a heart are connected to it.</p><p></p><center><img style="border:1px solid #08396d; border-radius: 25px; height:300px;" src="http://mdenic.psycholinguae.fr/donkeys/donkey-correlation-january/squareheartCondition31.jpg"></center><p></p></center>,5.00
1556035597,f3f6bf939865e63be18168976fc71523,SliderQuestion1,15,0,FirstBlock-Exactly3squarestarCondition61.jpg,NULL,<center><p style=" font-size: 1.4em;font-family: Book Antiqua%2C Palatino%2C serif;">Exactly 3 of the squares that are above a star are connected to it.</p><p></p><center><img style="border:1px solid #08396d; border-radius: 25px; height:300px;" src="http://mdenic.psycholinguae.fr/donkeys/donkey-correlation-january/squarestarCondition61.jpg"></center><p></p></center>,0.13
1556035597,f3f6bf939865e63be18168976fc71523,SliderQuestion1,17,0,FirstBlock-Exactly3triangleheartCondition53.jpg,NULL,<center><p style=" font-size: 1.4em;font-family: Book Antiqua%2C Palatino%2C serif;">Exactly 3 of the triangles that are above a heart are connected to it.</p><p></p><center><img style="border:1px solid #08396d; border-radius: 25px; height:300px;" src="http://mdenic.psycholinguae.fr/donkeys/donkey-correlation-january/triangleheartCondition53.jpg"></center><p></p></center>,0.00
1556035597,f3f6bf939865e63be18168976fc71523,SliderQuestion1,12,0,FirstBlock-Exactly3squarestarCondition62.jpg,NULL,<center><p style=" font-size: 1.4em;font-family: Book Antiqua%2C Palatino%2C serif;">Exactly 3 of the squares that are above a star are connected to it.</p><p></p><center><img style="border:1px solid #08396d; border-radius: 25px; height:300px;" src="http://mdenic.psycholinguae.fr/donkeys/donkey-correlation-january/squarestarCondition62.jpg"></center><p></p></center>,0.00
1556035597,f3f6bf939865e63be18168976fc71523,SliderQuestion1,25,0,FirstBlock-Exactly3squarestarCondition33.jpg,NULL,<center><p style=" font-size: 1.4em;font-family: Book Antiqua%2C Palatino%2C serif;">Exactly 3 of the squares that are above a star are connected to it.</p><p></p><center><img style="border:1px solid #08396d; border-radius: 25px; height:300px;" src="http://mdenic.psycholinguae.fr/donkeys/donkey-correlation-january/squarestarCondition33.jpg"></center><p></p></center>,5.00
1556035597,f3f6bf939865e63be18168976fc71523,SliderQuestion1,13,0,FirstBlock-Exactly3triangleheartCondition34.jpg,NULL,<center><p style=" font-size: 1.4em;font-family: Book Antiqua%2C Palatino%2C serif;">Exactly 3 of the triangles that are above a heart are connected to it.</p><p></p><center><img style="border:1px solid #08396d; border-radius: 25px; height:300px;" src="http://mdenic.psycholinguae.fr/donkeys/donkey-correlation-january/triangleheartCondition34.jpg"></center><p></p></center>,5.00
1556035597,f3f6bf939865e63be18168976fc71523,SliderQuestion1,21,0,SecondBlock-Exactly3triangleheartCondition55.jpg,NULL,<center><p style=" font-size: 1.4em;font-family: Book Antiqua%2C Palatino%2C serif;">Exactly 3 of the triangles that are above a heart are connected to it.</p><p></p><center><img style="border:1px solid #08396d; border-radius: 25px; height:300px;" src="http://mdenic.psycholinguae.fr/donkeys/donkey-correlation-january/triangleheartCondition55.jpg"></center><p></p></center>,0.00
1556035597,f3f6bf939865e63be18168976fc71523,SliderQuestion1,26,0,SecondBlock-Exactly3trianglestarCondition15.jpg,NULL,<center><p style=" font-size: 1.4em;font-family: Book Antiqua%2C Palatino%2C serif;">Exactly 3 of the triangles that are above a star are connected to it.</p><p></p><center><img style="border:1px solid #08396d; border-radius: 25px; height:300px;" src="http://mdenic.psycholinguae.fr/donkeys/donkey-correlation-january/trianglestarCondition15.jpg"></center><p></p></center>,0.11
1556035597,f3f6bf939865e63be18168976fc71523,SliderQuestion1,29,0,SecondBlock-Exactly3trianglestarCondition16.jpg,NULL,<center><p style=" font-size: 1.4em;font-family: Book Antiqua%2C Palatino%2C serif;">Exactly 3 of the triangles that are above a star are connected to it.</p><p></p><center><img style="border:1px solid #08396d; border-radius: 25px; height:300px;" src="http://mdenic.psycholinguae.fr/donkeys/donkey-correlation-january/trianglestarCondition16.jpg"></center><p></p></center>,0.00
1556035597,f3f6bf939865e63be18168976fc71523,SliderQuestion1,34,0,SecondBlock-Exactly3squarestarCondition23.jpg,NULL,<center><p style=" font-size: 1.4em;font-family: Book Antiqua%2C Palatino%2C serif;">Exactly 3 of the squares that are above a star are connected to it.</p><p></p><center><img style="border:1px solid #08396d; border-radius: 25px; height:300px;" src="http://mdenic.psycholinguae.fr/donkeys/donkey-correlation-january/squarestarCondition23.jpg"></center><p></p></center>,0.01
1556035597,f3f6bf939865e63be18168976fc71523,SliderQuestion1,9,0,SecondBlock-Exactly3triangleheartCondition24.jpg,NULL,<center><p style=" font-size: 1.4em;font-family: Book Antiqua%2C Palatino%2C serif;">Exactly 3 of the triangles that are above a heart are connected to it.</p><p></p><center><img style="border:1px solid #08396d; border-radius: 25px; height:300px;" src="http://mdenic.psycholinguae.fr/donkeys/donkey-correlation-january/triangleheartCondition24.jpg"></center><p></p></center>,0.00
1556035597,f3f6bf939865e63be18168976fc71523,SliderQuestion1,39,0,SecondBlock-Exactly3squareheartCondition54.jpg,NULL,<center><p style=" font-size: 1.4em;font-family: Book Antiqua%2C Palatino%2C serif;">Exactly 3 of the squares that are above a heart are connected to it.</p><p></p><center><img style="border:1px solid #08396d; border-radius: 25px; height:300px;" src="http://mdenic.psycholinguae.fr/donkeys/donkey-correlation-january/squareheartCondition54.jpg"></center><p></p></center>,0.00
1556035597,f3f6bf939865e63be18168976fc71523,SliderQuestion1,8,0,SecondBlock-Exactly3trianglestarCondition56.jpg,NULL,<center><p style=" font-size: 1.4em;font-family: Book Antiqua%2C Palatino%2C serif;">Exactly 3 of the triangles that are above a star are connected to it.</p><p></p><center><img style="border:1px solid #08396d; border-radius: 25px; height:300px;" src="http://mdenic.psycholinguae.fr/donkeys/donkey-correlation-january/trianglestarCondition56.jpg"></center><p></p></center>,0.00
1556035597,f3f6bf939865e63be18168976fc71523,SliderQuestion1,23,0,SecondBlock-Exactly3trianglestarCondition25.jpg,NULL,<center><p style=" font-size: 1.4em;font-family: Book Antiqua%2C Palatino%2C serif;">Exactly 3 of the triangles that are above a star are connected to it.</p><p></p><center><img style="border:1px solid #08396d; border-radius: 25px; height:300px;" src="http://mdenic.psycholinguae.fr/donkeys/donkey-correlation-january/trianglestarCondition25.jpg"></center><p></p></center>,0.00
1556035597,f3f6bf939865e63be18168976fc71523,SliderQuestion1,27,0,SecondBlock-Exactly3squarestarCondition26.jpg,NULL,<center><p style=" font-size: 1.4em;font-family: Book Antiqua%2C Palatino%2C serif;">Exactly 3 of the squares that are above a star are connected to it.</p><p></p><center><img style="border:1px solid #08396d; border-radius: 25px; height:300px;" src="http://mdenic.psycholinguae.fr/donkeys/donkey-correlation-january/squarestarCondition26.jpg"></center><p></p></center>,0.00
1556035597,f3f6bf939865e63be18168976fc71523,SliderQuestion1,30,0,SecondBlock-Exactly3squarestarCondition21.jpg,NULL,<center><p style=" font-size: 1.4em;font-family: Book Antiqua%2C Palatino%2C serif;">Exactly 3 of the squares that are above a star are connected to it.</p><p></p><center><img style="border:1px solid #08396d; border-radius: 25px; height:300px;" src="http://mdenic.psycholinguae.fr/donkeys/donkey-correlation-january/squarestarCondition21.jpg"></center><p></p></center>,0.00
